timestamp,accel_x,accel_y,accel_z,gyro_x,gyro_y,gyro_z
1980-01-06T00:26:31.818128976Z,0.019154,-0.222661,9.716568,-0.000666,-0.007457,-0.015846
1980-01-06T00:26:31.857848871Z,-0.032322,-0.227449,9.721356,-0.000399,-0.007989,-0.014781
1980-01-06T00:26:31.877747361Z,-0.016759,-0.214281,9.711780,-0.001332,-0.007989,-0.014781
1980-01-06T00:26:31.897606840Z,-0.025139,-0.180762,9.711780,-0.004128,-0.009188,-0.014781
1980-01-06T00:26:31.917527465Z,0.005986,-0.175974,9.711780,-0.003728,-0.007590,-0.014781
1980-01-06T00:26:31.937344965Z,0.034716,-0.196325,9.726145,-0.003063,-0.009321,-0.014781
1980-01-06T00:26:31.957203298Z,0.007183,-0.207098,9.697414,-0.002663,-0.007723,-0.013715
1980-01-06T00:26:31.996760069Z,-0.027533,-0.211887,9.702203,-0.001864,-0.008256,-0.014781
1980-01-06T00:26:32.016636892Z,0.009577,-0.174777,9.716568,-0.001864,-0.009454,-0.015846
1980-01-06T00:26:32.036532257Z,0.028730,-0.159214,9.740510,-0.002796,-0.007590,-0.014781
1980-01-06T00:26:32.056397413Z,0.014365,-0.174777,9.716568,-0.002264,-0.007989,-0.014781
1980-01-06T00:26:32.076238559Z,0.002394,-0.217872,9.706991,-0.001997,-0.007856,-0.014781
1980-01-06T00:26:32.096087517Z,-0.028730,-0.208296,9.721356,-0.002530,-0.008256,-0.014781
1980-01-06T00:26:32.155681371Z,0.037110,-0.197522,9.726145,-0.001465,-0.007590,-0.014781
1980-01-06T00:26:32.175616059Z,0.040701,-0.211887,9.711780,-0.002530,-0.008522,-0.015846
1980-01-06T00:26:32.195473142Z,-0.016759,-0.210690,9.711780,-0.002796,-0.007723,-0.014781
1980-01-06T00:26:32.215325903Z,-0.021548,-0.185551,9.733328,-0.001065,-0.007989,-0.014381
1980-01-06T00:26:32.235203142Z,-0.002394,-0.187945,9.728539,-0.003063,-0.008655,-0.014381
1980-01-06T00:26:32.255068663Z,-0.002394,-0.197522,9.723751,-0.002530,-0.007723,-0.014381
1980-01-06T00:26:32.314643819Z,-0.284910,0.277727,10.269629,-0.125701,0.009055,-0.014381
1980-01-06T00:26:32.334566267Z,-0.174777,0.817620,10.279205,-0.074968,-0.012384,-0.016512
1980-01-06T00:26:32.354390017Z,0.106542,0.435745,10.063727,0.022903,-0.011452,-0.013316
1980-01-06T00:26:32.374318871Z,-0.043096,-0.365116,9.508273,0.090547,0.000266,-0.003728
1980-01-06T00:26:32.394196736Z,0.160412,-0.252588,9.766847,0.029428,-0.011318,0.000533
1980-01-06T00:26:32.414002777Z,-0.112527,-0.290895,9.790789,0.010919,-0.013582,0.132625
1980-01-06T00:26:32.453776371Z,0.005986,-0.240617,9.685444,-0.038083,-0.004794,-0.017577
1980-01-06T00:26:32.473828038Z,-0.023942,-0.324414,9.704597,-0.061119,-0.004394,-0.019707
1980-01-06T00:26:32.493525902Z,0.094571,-0.015562,9.867403,-0.005992,-0.011318,-0.019707
1980-01-06T00:26:32.513364861Z,0.021548,-0.144849,9.723751,0.004794,-0.004794,-0.015446
1980-01-06T00:26:32.533279288Z,0.032322,-0.150835,9.709386,0.002663,-0.007057,-0.012251
1980-01-06T00:26:32.553112152Z,-0.015562,-0.165200,9.757270,0.002131,-0.008256,-0.014381
1980-01-06T00:26:32.612773350Z,0.503979,-0.499191,9.843461,0.048603,0.017710,0.041013
1980-01-06T00:26:32.632643090Z,-0.166397,-1.080982,9.570522,-0.043010,0.003462,0.434095
1980-01-06T00:26:32.652471423Z,-0.165200,-0.360327,10.202591,-0.069908,0.023702,0.307329
1980-01-06T00:26:32.672351007Z,0.244209,-0.295684,10.090662,-0.003063,0.030759,0.244478
1980-01-06T00:26:32.692202621Z,0.120907,-0.229843,10.229526,0.032757,0.308926,0.102798
1980-01-06T00:26:32.712077829Z,0.122104,-0.323217,9.947010,0.170043,0.566987,-0.039947
1980-01-06T00:26:32.771696371Z,0.494403,-0.375890,10.339660,0.470048,0.465254,-0.137952
1980-01-06T00:26:32.791740850Z,0.531513,-0.208296,10.248680,0.253932,0.257527,-0.093211
1980-01-06T00:26:32.811450642Z,0.483629,-0.258574,9.956587,0.038749,-0.000133,0.034621
1980-01-06T00:26:32.831529652Z,0.221464,-0.307655,9.548675,-0.049268,-0.072971,0.011185
1980-01-06T00:26:32.851166996Z,0.014365,-0.324414,9.448118,-0.117978,-0.025699,-0.002663
1980-01-06T00:26:32.871049288Z,0.118513,-0.383072,9.519944,-0.191481,0.054728,-0.005859
1980-01-06T00:26:32.910752048Z,0.356736,-0.542287,9.424176,-0.303733,0.192147,-0.162453
1980-01-06T00:26:32.930694184Z,0.397437,-0.544681,9.610924,-0.296276,0.076566,-0.233825
1980-01-06T00:26:32.950486892Z,0.295684,-0.600945,9.812037,-0.269512,-0.036086,-0.289219
1980-01-06T00:26:32.970366111Z,-0.065841,-0.720655,9.759365,-0.193212,0.019974,-0.385093
1980-01-06T00:26:32.990257986Z,-0.161609,-0.731429,9.922171,-0.144743,0.164450,-0.454335
1980-01-06T00:26:33.010156215Z,-0.196325,-0.785298,9.925163,-0.084023,0.288287,-0.536360
1980-01-06T00:26:33.030028819Z,-0.144849,-0.658405,10.212467,-0.012117,0.329166,-0.630103
1980-01-06T00:26:33.089609236Z,-0.579397,-0.541090,10.159795,-0.004661,0.236489,-0.716390
1980-01-06T00:26:33.109498194Z,-0.654814,-0.301669,10.327389,0.045673,0.282428,-0.723847
1980-01-06T00:26:33.129415902Z,-0.809240,-0.296881,10.418368,0.053796,0.269379,-0.705737
1980-01-06T00:26:33.149242986Z,-0.685939,-0.122104,10.466252,0.046339,0.234491,-0.722781
1980-01-06T00:26:33.169091111Z,-0.827197,-0.013168,10.637438,0.084156,0.177633,-0.742489
1980-01-06T00:26:33.228706110Z,-1.162385,-0.095768,10.503363,0.084156,0.172972,-0.654072
1980-01-06T00:26:33.248580902Z,-1.302446,0.025139,10.675745,0.084955,0.204131,-0.670051
1980-01-06T00:26:33.268427985Z,-1.097741,0.229843,10.809821,0.079229,0.170575,-0.709466
1980-01-06T00:26:33.288490902Z,-1.397017,0.155623,10.479421,0.139816,0.208658,-0.915061
1980-01-06T00:26:33.308226006Z,-1.626860,0.415394,10.910378,0.355399,0.101999,-1.035436
1980-01-06T00:26:33.328061163Z,-1.629254,-0.107739,10.556035,0.510927,0.065514,-0.855407
1980-01-06T00:26:33.367792673Z,-1.516727,-0.102951,10.579977,0.186687,0.269112,-0.605070
1980-01-06T00:26:33.387664496Z,-2.078167,0.152032,10.086772,0.174970,0.057258,-0.544350
1980-01-06T00:26:33.407543715Z,-2.387019,-0.076614,10.216059,0.280297,-0.087884,-0.526240
1980-01-06T00:26:33.427441006Z,-2.568978,0.051475,10.536881,0.263786,-0.078563,-0.479369
1980-01-06T00:26:33.447302100Z,-2.761712,0.372298,10.742783,0.300404,0.039415,-0.393082
1980-01-06T00:26:33.467148194Z,-2.655170,0.399832,10.546458,0.481100,0.161787,-0.373908
1980-01-06T00:26:33.487013402Z,-2.579752,0.351948,10.340557,0.629438,0.245011,-0.388821
1980-01-06T00:26:33.526782517Z,-2.600103,0.272939,9.912594,0.558464,0.087751,-0.250337
1980-01-06T00:26:33.546617569Z,-2.657564,0.454898,9.658808,0.547412,0.007457,-0.204531
1980-01-06T00:26:33.566511892Z,-2.683900,0.591368,9.591770,0.559663,-0.006658,-0.192813
1980-01-06T00:26:33.586383662Z,-2.762909,1.006762,9.788095,0.596281,-0.041945,-0.127832
1980-01-06T00:26:33.606220225Z,-2.800019,1.041478,9.539098,0.565921,0.027297,-0.038349
1980-01-06T00:26:33.626118089Z,-2.752135,1.029507,9.716269,0.564190,0.220510,-0.010653
1980-01-06T00:26:33.646004964Z,-2.643199,0.851139,9.989208,0.474708,0.231162,-0.009587
1980-01-06T00:26:33.685792673Z,-2.880225,1.040281,9.984420,0.511593,-0.086153,0.053263
1980-01-06T00:26:33.705603506Z,-2.789245,1.447295,10.175956,0.518118,-0.064981,0.112918
1980-01-06T00:26:33.725483506Z,-2.747346,1.587356,9.438541,0.659664,0.035154,0.158724
1980-01-06T00:26:33.745515798Z,-2.639607,1.723825,9.615712,0.766058,0.044342,0.217314
1980-01-06T00:26:33.765181214Z,-2.554613,1.559822,9.539098,0.666056,-0.042611,0.224771
1980-01-06T00:26:33.785055121Z,-2.403779,1.922544,9.697116,0.662860,-0.171374,0.219444
1980-01-06T00:26:33.844704964Z,-2.804807,2.281674,9.357139,0.637827,0.000000,0.351537
1980-01-06T00:26:33.864523610Z,-2.867057,2.589329,9.467272,0.663393,-0.014914,0.458063
1980-01-06T00:26:33.884416214Z,-2.911349,2.568978,9.448118,0.749280,0.028762,0.495348
1980-01-06T00:26:33.904390485Z,-2.788048,2.679112,9.184756,0.831438,0.070574,0.512392
1980-01-06T00:26:33.924355173Z,-2.580950,2.691083,8.835203,0.783501,0.015313,0.576308
1980-01-06T00:26:33.944089131Z,-2.606089,2.857480,8.365939,0.823182,-0.126367,0.627440
1980-01-06T00:26:33.983765121Z,-2.012326,3.247735,8.672397,0.674312,-0.194011,0.678573
1980-01-06T00:26:34.003659756Z,-2.051831,3.622427,8.720282,0.533963,-0.096939,0.724379
1980-01-06T00:26:34.023516944Z,-1.989582,3.663129,8.437765,0.460726,0.016378,0.735032
1980-01-06T00:26:34.043419339Z,-1.980005,3.737349,8.179192,0.650743,0.084555,0.759533
1980-01-06T00:26:34.063288298Z,-1.689109,3.641581,8.341997,0.722249,0.062185,0.814927
1980-01-06T00:26:34.083122881Z,-1.695095,3.643975,7.987656,0.781371,0.060720,0.791491
1980-01-06T00:26:34.103007673Z,-1.786075,3.712210,7.623737,0.700810,0.007057,0.789360
1980-01-06T00:26:34.142719287Z,-1.671153,4.049792,7.234080,0.521846,0.087884,0.897485
1980-01-06T00:26:34.162603037Z,-1.499967,4.253299,7.478289,0.467917,0.169111,0.948617
1980-01-06T00:26:34.182453662Z,-1.175553,4.280833,7.569269,0.396944,0.202001,0.963531
1980-01-06T00:26:34.202326058Z,-0.970849,4.159925,7.564480,0.352469,0.220510,0.969922
1980-01-06T00:26:34.222221475Z,-0.796072,4.236540,7.329848,0.322509,0.168312,0.968857
1980-01-06T00:26:34.242095693Z,-0.760159,4.135983,7.310695,0.332229,0.104529,0.975249
1980-01-06T00:26:34.301899652Z,-0.410606,4.308366,7.267599,0.163651,0.268446,0.994424
1980-01-06T00:26:34.321602829Z,-0.290895,4.412514,7.195773,0.181494,0.344213,0.991228
1980-01-06T00:26:34.341461735Z,-0.041899,4.399345,7.157466,0.166847,0.401072,0.989097
1980-01-06T00:26:34.361367985Z,0.111330,4.302381,6.965930,0.144476,0.402004,0.944356
1980-01-06T00:26:34.381154131Z,-0.010774,4.313154,6.803124,0.108657,0.329832,0.921986
1980-01-06T00:26:34.401072204Z,-0.148441,4.254497,6.860585,0.058723,0.231029,0.929442
1980-01-06T00:26:34.460659391Z,0.251391,4.147954,7.088932,-0.058856,0.313321,0.910268
1980-01-06T00:26:34.480553141Z,0.241814,4.351461,7.069778,-0.090414,0.303467,0.913463
1980-01-06T00:26:34.500447152Z,0.232238,4.429273,7.084144,-0.077098,0.287754,0.895354
1980-01-06T00:26:34.520488141Z,0.383072,4.029441,7.246949,-0.121840,0.266183,0.845287
1980-01-06T00:26:34.540164860Z,0.422577,4.049792,7.290045,-0.135821,0.099336,0.811198
1980-01-06T00:26:34.560017620Z,0.301669,4.124012,7.021894,-0.143411,0.015713,0.760065
1980-01-06T00:26:34.619646058Z,0.488417,4.028244,7.242161,-0.383495,0.376704,0.906007
1980-01-06T00:26:34.639520641Z,0.780510,3.933673,7.270891,-0.357529,0.468316,0.913463
1980-01-06T00:26:34.659348245Z,1.073799,3.545813,7.414543,-0.373375,0.472578,0.879375
1980-01-06T00:26:34.679431995Z,1.307234,3.604471,7.663540,-0.502671,0.418116,0.806937
1980-01-06T00:26:34.699110693Z,1.048660,3.867833,7.644387,-0.532765,0.270177,0.750478
1980-01-06T00:26:34.758701995Z,0.958878,3.113659,7.950845,-0.602939,0.190016,0.701476
1980-01-06T00:26:34.778567829Z,0.799663,3.220201,7.562984,-0.568318,0.372043,0.637560
1980-01-06T00:26:34.798482985Z,1.163582,2.400187,7.902960,-0.675643,0.353667,0.667388
1980-01-06T00:26:34.818351110Z,1.543063,2.305616,8.827123,-0.870587,0.276569,0.684432
1980-01-06T00:26:34.838216735Z,1.875857,2.845509,9.315539,-0.825579,0.230363,0.586428
1980-01-06T00:26:34.858091110Z,1.504756,3.142390,8.989928,-0.632234,0.255796,0.424508
1980-01-06T00:26:34.897809339Z,1.431733,1.906982,8.606855,-0.592420,0.277767,0.358461
1980-01-06T00:26:34.917702777Z,1.237802,1.856703,8.745720,-0.651276,0.479235,0.282827
1980-01-06T00:26:34.937734495Z,0.967257,2.302025,9.109638,-0.686562,0.408262,0.312655
1980-01-06T00:26:34.957424704Z,0.882263,2.009932,9.320328,-0.537825,0.362855,0.325438
1980-01-06T00:26:34.977320381Z,1.106121,1.877054,9.195829,-0.526107,0.522645,0.200802
1980-01-06T00:26:34.997361318Z,1.031901,2.179921,9.061754,-0.526373,0.431698,0.175236
1980-01-06T00:26:35.017279704Z,1.017536,1.897405,9.076119,-0.497079,0.338754,0.157126
1980-01-06T00:26:35.037110068Z,1.118092,1.671153,9.363423,-0.594550,0.420513,0.137952
1980-01-06T00:26:35.056983245Z,1.126472,1.948880,9.727343,-0.639424,0.436225,0.084688
1980-01-06T00:26:35.076786995Z,0.732626,2.100912,9.674670,-0.518384,0.417983,0.000533
1980-01-06T00:26:35.096715381Z,0.410606,1.628057,9.684247,-0.415719,0.329699,-0.069775
1980-01-06T00:26:35.116398662Z,0.392649,1.283292,9.741708,-0.459661,0.251669,-0.102798
1980-01-06T00:26:35.136249599Z,0.409408,1.425747,9.626786,-0.477771,0.291882,-0.156061
1980-01-06T00:26:35.156106526Z,0.125696,1.681927,9.406519,-0.452338,0.391884,-0.191215
1980-01-06T00:26:35.176210381Z,0.300472,1.441309,9.808745,-0.449808,0.359793,-0.184823
1980-01-06T00:26:35.235590901Z,0.177171,1.065420,10.368988,-0.357529,0.470048,-0.304133
1980-01-06T00:26:35.255468245Z,0.333991,0.761356,10.431237,-0.330631,0.360059,-0.351004
1980-01-06T00:26:35.275333870Z,0.081403,0.700304,10.319907,-0.364853,0.287089,-0.383362
1980-01-06T00:26:35.295411318Z,-0.401029,0.913388,9.917682,-0.269245,0.291616,-0.422776
1980-01-06T00:26:35.315130745Z,-0.612916,0.842759,10.339061,-0.244345,0.388555,-0.497345
1980-01-06T00:26:35.374651214Z,-1.078588,0.817620,10.233716,-0.108657,0.538358,-0.708267
1980-01-06T00:26:35.394568714Z,-1.060631,0.373495,10.358214,-0.114649,0.406398,-0.732768
1980-01-06T00:26:35.414428766Z,-0.939724,0.446519,10.224139,-0.221442,0.264052,-0.742356
1980-01-06T00:26:35.434315901Z,-1.047463,0.719458,10.521020,-0.247674,0.170442,-0.766857
1980-01-06T00:26:35.454331370Z,-1.248576,0.684742,10.822689,-0.213985,0.075900,-0.773248
1980-01-06T00:26:35.474266787Z,-1.369483,0.456095,10.884939,-0.205330,0.069375,-0.835033
1980-01-06T00:26:35.533666683Z,-1.644817,0.197522,10.588058,-0.179763,0.197340,-0.846751
1980-01-06T00:26:35.553535120Z,-1.520318,0.257377,10.664672,-0.227833,0.240483,-0.858469
1980-01-06T00:26:35.573385901Z,-1.522712,0.480037,10.750863,-0.190948,0.172706,-0.849947
1980-01-06T00:26:35.593255953Z,-1.593341,0.577003,11.028591,-0.131294,0.040480,-0.843556
1980-01-06T00:26:35.613174755Z,-1.593341,0.379481,10.913670,-0.095075,0.000133,-0.876579
1980-01-06T00:26:35.633028349Z,-1.726219,0.223858,10.707767,-0.071106,-0.039814,-0.886166
1980-01-06T00:26:35.672739651Z,-2.117671,0.476446,10.789170,-0.055660,-0.116513,-0.844621
1980-01-06T00:26:35.692666162Z,-2.129642,0.396240,10.793959,-0.026365,-0.147006,-0.843556
1980-01-06T00:26:35.712527880Z,-2.099715,0.416591,10.655095,0.040347,-0.257261,-0.803076
1980-01-06T00:26:35.732359703Z,-2.081758,0.290895,10.477924,0.103197,-0.281629,-0.773248
1980-01-06T00:26:35.752251474Z,-1.884237,0.235829,9.965566,0.024634,-0.107458,-0.763661
1980-01-06T00:26:35.772080276Z,-1.836353,0.331597,10.161890,-0.018243,-0.016245,-0.766857
1980-01-06T00:26:35.831696474Z,-2.230199,0.324414,10.774805,0.099868,-0.319046,-0.742356
1980-01-06T00:26:35.851571162Z,-2.369063,0.178368,10.372580,0.218246,-0.247674,-0.727442
1980-01-06T00:26:35.871419703Z,-2.291251,0.217872,9.888951,0.222906,-0.110521,-0.695484
1980-01-06T00:26:35.891304964Z,-2.057816,0.320823,9.764452,0.170842,-0.070973,-0.633699
1980-01-06T00:26:35.911184859Z,-1.980005,0.396240,9.898528,0.144077,-0.092278,-0.598545
1980-01-06T00:26:35.931070432Z,-2.000355,0.462081,10.075699,0.149803,-0.172706,-0.565522
1980-01-06T00:26:35.990689807Z,-2.018312,0.514753,9.663896,0.254199,-0.138751,-0.492019
1980-01-06T00:26:36.010515016Z,-1.932121,0.574608,9.692626,0.223705,-0.115981,-0.472844
1980-01-06T00:26:36.030414234Z,-1.867477,0.519542,9.797971,0.192946,-0.174570,-0.429168
1980-01-06T00:26:36.050264182Z,-1.763330,0.547075,9.807548,0.191082,-0.154863,-0.433429
1980-01-06T00:26:36.070143609Z,-1.816002,0.659603,9.702203,0.194810,-0.149004,-0.407863
1980-01-06T00:26:36.129781422Z,-1.746570,0.848745,9.879375,0.198938,-0.165116,-0.356730
1980-01-06T00:26:36.149645016Z,-1.802834,0.731429,9.697414,0.195875,-0.211987,-0.316250
1980-01-06T00:26:36.169502620Z,-1.731008,0.770933,9.654319,0.174703,-0.156993,-0.298141
1980-01-06T00:26:36.189416630Z,-1.637634,0.875081,9.793182,0.172706,-0.131960,-0.267248
1980-01-06T00:26:36.209289599Z,-1.503559,0.852336,9.936835,0.167779,-0.129962,-0.247008
1980-01-06T00:26:36.229111161Z,-1.525106,0.879869,10.061334,0.155129,-0.134623,-0.233160
1980-01-06T00:26:36.288712047Z,-1.654393,0.912191,10.090064,0.243945,-0.165116,-0.161787
1980-01-06T00:26:36.308639495Z,-1.604115,0.872687,10.037392,0.219444,-0.097738,-0.152200
1980-01-06T00:26:36.328493974Z,-1.583764,0.979228,10.094852,0.204664,-0.101067,-0.131960
1980-01-06T00:26:36.348312568Z,-1.516727,1.171962,10.353426,0.213452,-0.134090,-0.090414
1980-01-06T00:26:36.368199286Z,-1.485602,1.401805,10.391733,0.303866,-0.119975,-0.092545
1980-01-06T00:26:36.388080849Z,-1.551443,1.368286,10.315119,0.328900,-0.129030,-0.047804
1980-01-06T00:26:36.447651370Z,-1.477222,1.911770,10.707767,0.345012,-0.156194,0.018243
1980-01-06T00:26:36.467573453Z,-1.671153,1.801637,10.846631,0.376437,-0.202533,0.067245
1980-01-06T00:26:36.487392515Z,-1.617283,1.745373,10.932823,0.375505,-0.174703,0.102398
1980-01-06T00:26:36.507323349Z,-1.557428,1.806425,11.248857,0.466319,-0.128631,0.120508
1980-01-06T00:26:36.527162255Z,-1.592144,1.851915,11.272799,0.560728,-0.067644,0.146074
1980-01-06T00:26:36.547007880Z,-1.617283,1.911770,10.966342,0.617054,-0.015579,0.162053
1980-01-06T00:26:36.586744026Z,-2.023100,2.359486,10.846631,0.704006,-0.093077,0.251535
1980-01-06T00:26:36.606858870Z,-1.999158,2.480393,10.894516,0.902012,-0.081626,0.264319
1980-01-06T00:26:36.626729286Z,-2.096124,2.558204,10.521020,0.968458,-0.072305,0.311190
1980-01-06T00:26:36.646588765Z,-2.073379,2.718616,10.023026,1.038099,-0.123571,0.371910
1980-01-06T00:26:36.666269807Z,-2.033874,2.704251,9.606435,0.886033,-0.111720,0.446479
1980-01-06T00:26:36.686146057Z,-2.023100,3.009511,9.271247,0.829840,-0.112119,0.543418
1980-01-06T00:26:36.706005588Z,-1.898602,3.123236,9.323919,0.799081,-0.111853,0.606268
1980-01-06T00:26:36.745710640Z,-1.801637,3.265691,8.691850,0.912132,-0.090547,0.679771
1980-01-06T00:26:36.765602463Z,-1.820790,3.142390,8.251317,0.950481,-0.131294,0.722382
1980-01-06T00:26:36.785488922Z,-1.841141,3.019088,7.619247,0.817057,-0.129962,0.774580
1980-01-06T00:26:36.805587776Z,-1.845930,2.990358,7.011120,0.669651,-0.105994,0.842757
1980-01-06T00:26:36.825419078Z,-1.772906,3.096900,6.240188,0.641422,-0.109855,0.916260
1980-01-06T00:26:36.845062463Z,-1.182736,3.496732,6.929718,0.664059,-0.269778,1.047287
1980-01-06T00:26:36.904730067Z,-0.389058,2.923320,5.622483,0.168178,0.113051,1.127182
1980-01-06T00:26:36.924543192Z,0.189142,2.492364,5.670367,0.126500,0.214384,1.137835
1980-01-06T00:26:36.944413974Z,0.571017,2.582147,6.197092,0.018908,0.303067,1.153814
1980-01-06T00:26:36.964305744Z,0.808043,2.784456,6.513126,0.040879,0.337822,1.113334
1980-01-06T00:26:36.984188140Z,1.059434,2.503138,6.594529,0.137153,0.344346,1.007872
1980-01-06T00:26:37.004059078Z,1.300052,1.996764,6.604106,0.137419,0.350072,0.959936
1980-01-06T00:26:37.063621526Z,1.386243,2.090138,6.503550,-0.195742,0.564723,0.753274
1980-01-06T00:26:37.083506734Z,1.418565,2.541445,7.063793,-0.334892,0.621981,0.738361
1980-01-06T00:26:37.103407984Z,1.431733,2.726996,7.284060,-0.298274,0.718254,0.645683
1980-01-06T00:26:37.123263036Z,1.374272,2.507926,7.466019,-0.244345,0.650343,0.573245
1980-01-06T00:26:37.143133244Z,1.426944,2.343924,7.676709,-0.343148,0.571248,0.539156
1980-01-06T00:26:37.163041421Z,1.410185,2.560599,7.652766,-0.447943,0.646349,0.449674
1980-01-06T00:26:37.202759286Z,1.831564,2.572570,8.816348,-0.766457,0.469914,0.399607
1980-01-06T00:26:37.222634859Z,1.829170,2.497152,8.797194,-0.758867,0.525175,0.273906
1980-01-06T00:26:37.242492880Z,1.884237,2.549825,9.649530,-0.754872,0.576973,0.115182
1980-01-06T00:26:37.262403036Z,1.453280,2.436100,9.376592,-0.641688,0.442351,-0.013715
1980-01-06T00:26:37.282238296Z,1.188721,2.072181,9.673472,-0.690690,0.334093,-0.076566
1980-01-06T00:26:37.302125432Z,1.007959,2.224213,9.893740,-0.727974,0.325172,-0.143677
1980-01-06T00:26:37.361733973Z,0.283713,2.098518,10.302250,-0.512525,0.337156,-0.373908
1980-01-06T00:26:37.381589338Z,0.107739,1.922544,10.230424,-0.505734,0.282561,-0.413322
1980-01-06T00:26:37.401447463Z,-0.113725,1.598130,10.053253,-0.503470,0.285890,-0.443150
1980-01-06T00:26:37.421358713Z,-0.286107,1.675941,10.081984,-0.502272,0.309326,-0.476173
1980-01-06T00:26:37.441174963Z,-0.344765,1.824382,10.072407,-0.522379,0.317582,-0.520914
1980-01-06T00:26:37.461047671Z,-0.438139,1.850718,10.206482,-0.527705,0.245277,-0.543284
1980-01-06T00:26:37.520715380Z,-0.924162,1.466449,10.302250,-0.402270,0.166980,-0.617853
1980-01-06T00:26:37.540542203Z,-1.035492,1.379060,10.441113,-0.330099,0.156061,-0.642354
1980-01-06T00:26:37.560406578Z,-1.128866,1.355118,10.608707,-0.394014,0.146740,-0.623179
1980-01-06T00:26:37.580264078Z,-1.156399,1.431733,10.857705,-0.396012,0.166980,-0.678573
1980-01-06T00:26:37.600164078Z,-1.291672,1.395820,10.934319,-0.356730,0.067112,-0.671116
1980-01-06T00:26:37.620029390Z,-1.405396,1.227028,10.838552,-0.283626,0.033156,-0.682834
1980-01-06T00:26:37.679647567Z,-1.425747,1.027112,10.737994,-0.224904,0.063649,-0.657268
1980-01-06T00:26:37.699531578Z,-1.201889,1.052252,10.776301,-0.160988,0.008389,-0.677508
1980-01-06T00:26:37.719577932Z,-1.369483,1.097741,10.670957,-0.098803,-0.080960,-0.700943
1980-01-06T00:26:37.739234286Z,-1.605312,1.115698,10.508151,-0.065647,-0.102532,-0.724379
1980-01-06T00:26:37.759119807Z,-1.736993,1.073799,10.412383,-0.053796,-0.100667,-0.711596
1980-01-06T00:26:37.779017046Z,-1.766921,1.070208,10.335769,-0.029428,-0.087218,-0.688160
1980-01-06T00:26:37.818749442Z,-1.607706,1.164779,10.441113,-0.002663,-0.090414,-0.656202
1980-01-06T00:26:37.838645275Z,-1.509544,1.369483,10.551247,0.026898,-0.134623,-0.663659
1980-01-06T00:26:37.858468973Z,-1.595735,1.413776,10.737994,0.075634,-0.243679,-0.660463
1980-01-06T00:26:37.878368088Z,-1.801637,1.312023,10.848128,0.110388,-0.301470,-0.647680
1980-01-06T00:26:37.898193713Z,-1.972822,1.346738,11.058818,0.121440,-0.274971,-0.611461
1980-01-06T00:26:37.918059077Z,-2.109292,1.443704,11.221623,0.194144,-0.235157,-0.575242
1980-01-06T00:26:37.957794598Z,-1.939303,1.456872,11.030087,0.337955,-0.223040,-0.544350
1980-01-06T00:26:37.977659911Z,-2.068590,1.461660,10.848128,0.363521,-0.273107,-0.496413
1980-01-06T00:26:37.997581317Z,-2.178724,1.568202,10.666168,0.385892,-0.258460,-0.450606
1980-01-06T00:26:38.017461734Z,-2.226608,1.662773,10.651803,0.409328,-0.236489,-0.407996
1980-01-06T00:26:38.037280223Z,-2.269703,1.853112,10.551247,0.480301,-0.272441,-0.362190
1980-01-06T00:26:38.057162932Z,-2.304419,1.953669,10.484209,0.522645,-0.309592,-0.309992
1980-01-06T00:26:38.077032619Z,-2.410961,2.000355,10.374076,0.549277,-0.317981,-0.255663
1980-01-06T00:26:38.116777150Z,-2.363077,2.214637,10.498574,0.572180,-0.320644,-0.121440
1980-01-06T00:26:38.136646890Z,-2.270900,2.315193,10.431537,0.584031,-0.288021,-0.058589
1980-01-06T00:26:38.156492463Z,-2.183512,2.536657,10.532093,0.619184,-0.265517,-0.013848
1980-01-06T00:26:38.176412202Z,-2.221819,2.803610,10.651803,0.698147,-0.307329,0.047937
1980-01-06T00:26:38.196504807Z,-2.279280,2.934094,10.795456,0.745019,-0.337023,0.107592
1980-01-06T00:26:38.216155275Z,-2.352303,2.949656,10.714052,0.816258,-0.342615,0.155528
1980-01-06T00:26:38.275780952Z,-2.431312,3.128025,9.799467,0.900813,-0.254997,0.358994
1980-01-06T00:26:38.295631109Z,-2.437297,3.010709,9.167398,0.842091,-0.172972,0.425040
1980-01-06T00:26:38.315469494Z,-2.270900,3.223793,8.913613,0.838362,-0.220776,0.520914
1980-01-06T00:26:38.335346161Z,-2.157176,3.175909,8.248025,0.830373,-0.211455,0.602939
1980-01-06T00:26:38.355207984Z,-1.915361,3.155558,7.922413,0.858336,-0.171507,0.649811
1980-01-06T00:26:38.375108244Z,-1.890222,3.238158,7.457938,0.796284,-0.159390,0.748880
1980-01-06T00:26:38.434690796Z,-0.882263,3.123236,5.682638,0.738094,-0.009055,0.916659
1980-01-06T00:26:38.454569025Z,-0.973243,2.681506,5.380968,0.444082,0.006125,1.006141
1980-01-06T00:26:38.474436473Z,-0.666785,2.565387,5.582081,0.337289,0.203598,0.984836
1980-01-06T00:26:38.494344650Z,-0.374693,2.521094,5.701791,0.116247,0.285224,1.040230
1980-01-06T00:26:38.514164181Z,0.061052,2.734178,5.663484,-0.028229,0.333161,1.008272
1980-01-06T00:26:38.534032254Z,0.283713,2.863465,6.104017,-0.061119,0.290684,1.027447
1980-01-06T00:26:38.573768296Z,0.843956,2.651578,6.338649,0.019308,0.482032,0.941160
1980-01-06T00:26:38.593646056Z,1.053449,2.472013,6.118382,0.028363,0.507332,0.888962
1980-01-06T00:26:38.613558296Z,1.289278,1.954866,6.343437,-0.125701,0.534096,0.891093
1980-01-06T00:26:38.633379754Z,1.501164,2.134431,6.836643,-0.353135,0.651009,0.828242
1980-01-06T00:26:38.653245900Z,1.583764,2.749741,7.377733,-0.461925,0.692155,0.734499
1980-01-06T00:26:38.673131785Z,1.468843,2.706645,7.530962,-0.449808,0.631568,0.649278
1980-01-06T00:26:38.732821317Z,1.990779,2.270900,8.459911,-0.714126,0.669119,0.447943
1980-01-06T00:26:38.752656421Z,2.221819,1.996764,9.058462,-0.714126,0.640357,0.330764
1980-01-06T00:26:38.772541629Z,2.456451,2.229002,9.695320,-0.812130,0.527439,0.243413
1980-01-06T00:26:38.792333973Z,2.199074,2.488773,9.862914,-0.687494,0.478037,0.048469
1980-01-06T00:26:38.812236160Z,1.643619,2.554613,9.781511,-0.572313,0.400672,-0.115581
1980-01-06T00:26:38.832105015Z,1.242591,2.224213,9.867702,-0.567919,0.301470,-0.177366
1980-01-06T00:26:38.852192358Z,1.072602,2.209848,10.068815,-0.602273,0.363788,-0.232760
1980-01-06T00:26:38.891726265Z,0.338780,2.169147,10.260351,-0.462990,0.408928,-0.441552
1980-01-06T00:26:38.911601577Z,0.125696,2.021903,10.394426,-0.492684,0.254199,-0.469249
1980-01-06T00:26:38.931442931Z,-0.152032,2.121263,10.456676,-0.497478,0.189217,-0.507598
1980-01-06T00:26:38.951301733Z,-0.387861,1.935712,10.418368,-0.449674,0.181095,-0.534230
1980-01-06T00:26:38.971223087Z,-0.355539,1.589750,10.437522,-0.447144,0.190815,-0.539556
1980-01-06T00:26:38.991105483Z,-0.174777,1.470040,10.485406,-0.452737,0.207194,-0.559796
1980-01-06T00:26:39.050683556Z,0.215478,1.875857,10.873267,-0.493616,0.131826,-0.680171
1980-01-06T00:26:39.070728140Z,0.209493,1.819593,10.873267,-0.375106,0.072438,-0.755804
1980-01-06T00:26:39.090421733Z,0.026336,1.391031,10.959458,-0.293480,-0.004527,-0.827177
1980-01-06T00:26:39.110258244Z,-0.418985,1.250970,11.031284,-0.293480,-0.049934,-0.876179
1980-01-06T00:26:39.130148660Z,-0.966060,1.487996,11.390414,-0.290817,-0.078164,-0.909202
1980-01-06T00:26:39.150004962Z,-1.375469,1.592144,11.591528,-0.208392,-0.088151,-0.920920
1980-01-06T00:26:39.189776108Z,-1.786075,1.298854,11.289858,0.069642,-0.125701,-0.963531
1980-01-06T00:26:39.209651212Z,-2.018312,1.194707,11.160571,0.100667,-0.211721,-0.929442
1980-01-06T00:26:39.229509077Z,-2.195483,1.381454,11.055226,0.073770,-0.199737,-0.881506
1980-01-06T00:26:39.249415119Z,-2.182315,1.684321,11.064803,0.105062,-0.116780,-0.839960
1980-01-06T00:26:39.269264025Z,-2.175132,1.935712,11.127052,0.176967,-0.148471,-0.781371
1980-01-06T00:26:39.289095483Z,-2.147599,1.940500,11.136629,0.269379,-0.207860,-0.738760
1980-01-06T00:26:39.348758452Z,-2.554613,2.120066,10.901998,0.415985,-0.239951,-0.591754
1980-01-06T00:26:39.368571577Z,-2.689886,2.221819,10.940305,0.463390,-0.236355,-0.510794
1980-01-06T00:26:39.388459702Z,-2.801216,2.234987,11.088745,0.525308,-0.252867,-0.442617
1980-01-06T00:26:39.408568660Z,-2.887407,2.336741,11.270704,0.585096,-0.282029,-0.357396
1980-01-06T00:26:39.428420171Z,-2.882619,2.546233,11.098322,0.678307,-0.268313,-0.299872
1980-01-06T00:26:39.448058608Z,-2.901772,2.628834,10.748769,0.768854,-0.331830,-0.213585
1980-01-06T00:26:39.488137619Z,-2.868254,2.749741,10.619482,0.799613,-0.324772,-0.037817
1980-01-06T00:26:39.507883191Z,-2.845509,3.081338,10.346542,0.849281,-0.299073,0.044208
1980-01-06T00:26:39.527556733Z,-2.877831,3.281253,9.934740,0.881639,-0.264319,0.112385
1980-01-06T00:26:39.547420171Z,-2.796427,3.445256,9.747993,0.872983,-0.287488,0.210390
1980-01-06T00:26:39.567303608Z,-2.880225,3.537433,9.331401,0.913597,-0.301603,0.293480
1980-01-06T00:26:39.587187514Z,-2.827552,3.570952,8.900445,0.906672,-0.315984,0.354200
1980-01-06T00:26:39.607053608Z,-2.887407,3.391387,8.254010,0.912531,-0.356996,0.453270
1980-01-06T00:26:39.646765223Z,-2.663549,3.493140,7.463924,0.692954,-0.289086,0.674844
1980-01-06T00:26:39.666649441Z,-2.414552,3.584120,7.157466,0.649411,-0.269512,0.797350
1980-01-06T00:26:39.686519025Z,-1.912967,3.427300,6.638822,0.638759,-0.188552,0.888962
1980-01-06T00:26:39.706377358Z,-1.411382,3.543418,6.298845,0.620383,-0.021305,0.923051
1980-01-06T00:26:39.726234858Z,-0.960075,3.380613,5.954081,0.490021,0.039548,0.933703
1980-01-06T00:26:39.746317514Z,-0.672771,3.162740,5.480029,0.292548,-0.044741,0.923051
1980-01-06T00:26:39.805753608Z,-0.052672,3.111265,6.452075,-0.047937,-0.128764,1.017859
1980-01-06T00:26:39.825581004Z,0.106542,3.068170,6.763320,-0.016778,-0.005326,1.041295
1980-01-06T00:26:39.845458973Z,0.470461,2.680309,6.705860,0.011185,0.164051,1.056209
1980-01-06T00:26:39.865345848Z,0.851139,2.474407,6.624457,-0.049135,0.396811,1.010402
1980-01-06T00:26:39.885205431Z,1.180341,2.333150,6.614880,-0.168445,0.504003,0.975249
1980-01-06T00:26:39.905109285Z,1.610101,2.171541,6.974010,-0.302535,0.549809,0.925181
1980-01-06T00:26:39.964735535Z,1.778892,2.400187,7.203854,-0.283493,0.525308,0.697215
1980-01-06T00:26:39.984578868Z,1.900996,2.003947,6.830358,-0.453003,0.439288,0.652474
1980-01-06T00:26:40.004477827Z,2.278083,2.266112,8.252514,-0.571780,0.405333,0.606668
1980-01-06T00:26:40.024300535Z,1.991976,2.597709,8.137592,-0.606268,0.503870,0.472444
1980-01-06T00:26:40.044179337Z,1.953669,2.525883,8.535029,-0.511193,0.442750,0.343547
1980-01-06T00:26:40.064059910Z,1.866280,2.260126,8.697836,-0.576973,0.414920,0.258326
1980-01-06T00:26:40.123654493Z,1.776498,1.987187,9.516652,-0.733700,0.607999,0.025034
1980-01-06T00:26:40.143518347Z,1.781286,2.067393,9.837476,-0.722648,0.648612,-0.078297
1980-01-06T00:26:40.163417150Z,1.547851,1.938106,9.971551,-0.609730,0.653805,-0.241282
1980-01-06T00:26:40.183270743Z,0.981623,1.750161,9.621997,-0.540888,0.570449,-0.385093
1980-01-06T00:26:40.203140587Z,0.556652,1.636437,9.641151,-0.651009,0.480567,-0.443682
1980-01-06T00:26:40.223007566Z,0.155623,1.771709,10.210971,-0.704672,0.440220,-0.469249
1980-01-06T00:26:40.262736108Z,-0.446519,1.522712,10.345046,-0.507598,0.443283,-0.580036
1980-01-06T00:26:40.282651264Z,-0.652420,1.642422,10.210971,-0.471512,0.301070,-0.582166
1980-01-06T00:26:40.302480743Z,-0.853533,1.567005,9.746496,-0.491486,0.253400,-0.591754
1980-01-06T00:26:40.322342514Z,-0.804452,1.247379,9.588478,-0.406398,0.176434,-0.577905
1980-01-06T00:26:40.342231472Z,-0.456095,0.881066,9.617208,-0.455134,0.237820,-0.568318
1980-01-06T00:26:40.362077566Z,-0.105345,0.645237,9.717766,-0.509595,0.355665,-0.655670
1980-01-06T00:26:40.421759545Z,-0.417788,0.818817,10.732907,-0.393349,0.196807,-0.844221
1980-01-06T00:26:40.441538451Z,-0.606930,0.480037,10.282797,-0.294146,0.149270,-0.896419
1980-01-06T00:26:40.461434129Z,-0.646434,0.322020,10.105626,-0.376704,0.138085,-0.928377
1980-01-06T00:26:40.481345535Z,-0.687136,0.377087,10.651505,-0.494948,0.082824,-0.920920
1980-01-06T00:26:40.501204858Z,-0.860716,0.411803,11.226112,-0.526373,0.116114,-0.984836
1980-01-06T00:26:40.521055170Z,-1.090559,0.453701,11.661858,-0.405466,0.054328,-1.029577
1980-01-06T00:26:40.580678816Z,-1.175553,-0.202310,10.699389,-0.183225,0.110921,-1.103080
1980-01-06T00:26:40.600560170Z,-1.041478,-0.038307,11.096826,-0.215583,0.068044,-1.107341
1980-01-06T00:26:40.620398712Z,-1.148020,-0.041899,11.374553,-0.122905,-0.001065,-1.149952
1980-01-06T00:26:40.640285170Z,-1.314417,-0.118513,11.259631,0.016378,-0.059522,-1.195758
1980-01-06T00:26:40.660153660Z,-1.543063,-0.023942,11.010634,0.086020,-0.099203,-1.192562
1980-01-06T00:26:40.680063295Z,-1.771709,0.017957,11.120768,0.073636,-0.082558,-1.181910
1980-01-06T00:26:40.719774337Z,-1.873463,0.155623,11.613974,0.086686,-0.158724,-1.169127
1980-01-06T00:26:40.739631785Z,-1.877054,0.306458,11.771991,0.163917,-0.234225,-1.156344
1980-01-06T00:26:40.759491785Z,-2.062605,0.386664,11.776779,0.278566,-0.283893,-1.137169
1980-01-06T00:26:40.779395326Z,-2.167950,0.205901,11.671434,0.352735,-0.262188,-1.120125
1980-01-06T00:26:40.799260326Z,-2.274492,0.379481,11.566089,0.370978,-0.262587,-1.097754
1980-01-06T00:26:40.819093191Z,-2.372654,0.603339,11.590032,0.382163,-0.318647,-1.038099
1980-01-06T00:26:40.839181837Z,-2.444480,0.809240,11.642704,0.430766,-0.338487,-0.992293
1980-01-06T00:26:40.898571055Z,-2.677915,1.061828,11.824663,0.731037,-0.354466,-0.851678
1980-01-06T00:26:40.918453868Z,-2.839523,1.134852,11.575665,0.812397,-0.395612,-0.787762
1980-01-06T00:26:40.938326941Z,-2.902970,1.260547,11.135133,0.863529,-0.402936,-0.705737
1980-01-06T00:26:40.958215066Z,-2.979584,1.422156,11.092037,0.865793,-0.352336,-0.620516
1980-01-06T00:26:40.978114128Z,-3.060987,1.632846,11.044453,0.862997,-0.316783,-0.512392
1980-01-06T00:26:41.037723347Z,-2.996343,2.054225,10.915166,1.005609,-0.213585,-0.254598
1980-01-06T00:26:41.057544857Z,-2.983175,2.075773,10.441113,0.962332,-0.261655,-0.169377
1980-01-06T00:26:41.077428191Z,-2.888604,2.267309,10.421960,1.119459,-0.267381,-0.115048
1980-01-06T00:26:41.097312618Z,-2.749741,2.513912,10.153810,1.202816,-0.283360,-0.004261
1980-01-06T00:26:41.117137357Z,-2.572570,2.589329,10.019734,1.272990,-0.278300,0.058589
1980-01-06T00:26:41.137032930Z,-2.507926,2.741361,9.622296,1.235439,-0.239018,0.156594
1980-01-06T00:26:41.176772305Z,-2.469619,3.187880,9.023746,1.090297,-0.097072,0.267381
1980-01-06T00:26:41.196652930Z,-2.523489,3.344700,9.119514,1.066196,-0.137286,0.335558
1980-01-06T00:26:41.216504962Z,-2.601300,3.653552,9.291897,1.092960,-0.256329,0.435693
1980-01-06T00:26:41.236368712Z,-2.604892,3.798401,8.913613,1.182975,-0.218246,0.482564
1980-01-06T00:26:41.256250014Z,-2.373851,3.726575,8.075643,1.164333,-0.128098,0.590156
1980-01-06T00:26:41.276147409Z,-1.635240,4.224569,8.027759,1.322125,-0.137685,0.661529
1980-01-06T00:26:41.296200118Z,-1.908179,3.839103,7.472303,0.891759,-0.075501,0.733967
1980-01-06T00:26:41.335718139Z,-1.495179,4.617218,6.993463,0.615722,0.073903,0.869255
1980-01-06T00:26:41.355611003Z,-1.350330,4.680665,6.883330,0.765259,-0.007191,0.884169
1980-01-06T00:26:41.375461212Z,-1.017536,4.639963,7.261614,0.882704,-0.121573,0.902278
1980-01-06T00:26:41.395388920Z,-1.116895,4.163517,7.055712,0.861266,-0.119310,0.883103
1980-01-06T00:26:41.415196784Z,-1.423353,4.114436,6.648698,0.688826,-0.050600,0.908670
1980-01-06T00:26:41.435070743Z,-1.364695,4.197036,6.260838,0.629837,0.020240,0.999217
1980-01-06T00:26:41.494689753Z,-0.192733,4.697424,6.069301,0.347010,0.357662,1.165398
1980-01-06T00:26:41.514551941Z,0.208296,4.752491,6.136339,0.329566,0.321576,1.205878
1980-01-06T00:26:41.534411732Z,0.478840,4.612430,6.002264,0.305864,0.307462,1.208009
1980-01-06T00:26:41.554283295Z,0.703895,4.490325,5.992687,0.301470,0.271642,1.229314
1980-01-06T00:26:41.574407566Z,0.908600,4.350265,6.011840,0.204930,0.239951,1.222923
1980-01-06T00:26:41.594233503Z,1.241394,4.377798,6.107608,0.123837,0.248739,1.144093
1980-01-06T00:26:41.633760743Z,1.349133,4.126407,6.409278,-0.005593,0.228632,1.173920
1980-01-06T00:26:41.653614961Z,1.461660,4.193444,6.385336,-0.044342,0.461392,1.178181
1980-01-06T00:26:41.673557305Z,1.646014,4.224569,6.581660,0.000399,0.605602,1.177116
1980-01-06T00:26:41.693372045Z,1.883040,4.028244,6.476315,0.056326,0.636761,1.159007
1980-01-06T00:26:41.713264024Z,2.225410,3.621230,6.433220,-0.013582,0.631701,1.096156
1980-01-06T00:26:41.733096263Z,2.389413,3.772065,6.423643,-0.125701,0.594151,1.036501
1980-01-06T00:26:41.753040274Z,2.321178,3.815161,6.452374,-0.200003,0.505867,1.012000
1980-01-06T00:26:41.792750847Z,2.074576,3.696647,6.663064,-0.218645,0.513457,0.949150
1980-01-06T00:26:41.812647826Z,2.122460,3.684676,6.629545,-0.281363,0.569650,0.916127
1980-01-06T00:26:41.832684545Z,1.990779,3.654749,6.610391,-0.369380,0.526773,0.928910
1980-01-06T00:26:41.852343243Z,2.012326,3.462016,6.790854,-0.466452,0.545149,0.915061
1980-01-06T00:26:41.872413086Z,2.066196,3.529053,7.233182,-0.559130,0.568185,0.903343
1980-01-06T00:26:41.892068711Z,2.096124,3.557784,7.549217,-0.612393,0.515321,0.866059
1980-01-06T00:26:41.951729857Z,2.407370,2.910152,7.606678,-0.645017,0.623978,0.795752
1980-01-06T00:26:41.971587513Z,2.519897,2.882619,7.759907,-0.685497,0.628639,0.725444
1980-01-06T00:26:41.991444701Z,2.480393,2.545036,7.994539,-0.681769,0.536760,0.667920
1980-01-06T00:26:42.011508972Z,2.249352,2.523489,8.315362,-0.684165,0.528637,0.601874
1980-01-06T00:26:42.031167982Z,2.019509,2.554613,7.984962,-0.598811,0.598545,0.494282
1980-01-06T00:26:42.051068347Z,2.163161,2.115277,8.138191,-0.660330,0.585629,0.496413
1980-01-06T00:26:42.090798190Z,2.454057,2.230199,8.775048,-0.792689,0.862730,0.339819
1980-01-06T00:26:42.110661940Z,2.209848,2.161964,8.607454,-0.682701,0.819054,0.218379
1980-01-06T00:26:42.130549701Z,1.970428,2.024297,9.119814,-0.732635,0.645150,0.178964
1980-01-06T00:26:42.150392045Z,2.025495,1.964442,9.622596,-0.690557,0.573778,0.122505
1980-01-06T00:26:42.170283451Z,1.709460,1.997961,9.450213,-0.614524,0.663925,-0.003196
1980-01-06T00:26:42.190135274Z,1.272518,2.024297,9.210793,-0.560195,0.694286,-0.117179
1980-01-06T00:26:42.210046680Z,1.279701,1.527501,9.220370,-0.618652,0.500141,-0.120375
1980-01-06T00:26:42.249773190Z,1.478420,1.509544,9.622596,-0.719319,0.500807,-0.266316
1980-01-06T00:26:42.269631263Z,1.212663,1.899799,9.550770,-0.665124,0.522645,-0.362190
1980-01-06T00:26:42.289509909Z,1.127669,1.736993,9.890746,-0.630769,0.402004,-0.343015
1980-01-06T00:26:42.309357045Z,1.063026,1.060631,9.909900,-0.679372,0.531567,-0.469781
1980-01-06T00:26:42.329229545Z,0.769736,0.908600,10.039187,-0.632367,0.671116,-0.632767
1980-01-06T00:26:42.349123607Z,0.658405,0.987608,10.221147,-0.573911,0.594683,-0.658333
1980-01-06T00:26:42.408740065Z,0.095768,0.711078,10.920253,-0.627573,0.264185,-0.852211
1980-01-06T00:26:42.428574909Z,0.070629,0.678756,11.174039,-0.612660,0.203332,-0.875647
1980-01-06T00:26:42.448449492Z,-0.172383,0.821211,11.212346,-0.503204,0.221042,-0.929975
1980-01-06T00:26:42.468372409Z,-0.375890,0.604536,11.537957,-0.437823,0.158058,-0.958737
1980-01-06T00:26:42.488254597Z,-0.411803,0.544681,11.662456,-0.432896,0.177100,-1.039697
1980-01-06T00:26:42.508082044Z,-0.578200,0.738611,11.571476,-0.383095,0.172173,-1.053546
1980-01-06T00:26:42.547997982Z,-0.750582,0.891840,11.355998,-0.236489,0.188019,-1.074851
1980-01-06T00:26:42.567721992Z,-1.034295,0.952892,11.466131,-0.225303,0.174437,-1.106809
1980-01-06T00:26:42.587573503Z,-1.345541,0.678756,11.672032,-0.244744,0.072438,-1.069525
1980-01-06T00:26:42.607394857Z,-1.589750,0.501585,11.810896,-0.238353,-0.035553,-1.004544
1980-01-06T00:26:42.627286003Z,-1.539472,0.650026,11.964126,-0.194810,-0.130761,-0.959802
1980-01-06T00:26:42.647143555Z,-1.608904,0.739808,11.820473,-0.060187,-0.160455,-0.940628
1980-01-06T00:26:42.667026940Z,-1.595735,0.544681,11.485285,0.040214,-0.131960,-0.924649
1980-01-06T00:26:42.706757565Z,-1.569399,0.635661,11.121367,0.120641,-0.214917,-0.829840
1980-01-06T00:26:42.726640638Z,-1.675941,0.507571,10.872668,0.151933,-0.225969,-0.785099
1980-01-06T00:26:42.746529596Z,-1.663970,0.702698,10.671556,0.171507,-0.169111,-0.806404
1980-01-06T00:26:42.766375221Z,-1.635240,0.901417,10.398317,0.211055,-0.229298,-0.754207
1980-01-06T00:26:42.786330638Z,-1.763330,0.720655,10.077495,0.225703,-0.252334,-0.720118
1980-01-06T00:26:42.806171680Z,-1.675941,0.797269,9.924265,0.219711,-0.289219,-0.689225
1980-01-06T00:26:42.826018815Z,-1.911770,1.035492,9.895535,0.241415,-0.319979,-0.673247
1980-01-06T00:26:42.865707409Z,-1.884237,0.770933,9.488521,0.230097,-0.213452,-0.527305
1980-01-06T00:26:42.885584544Z,-1.696292,0.858321,9.483732,0.233160,-0.123304,-0.498543
1980-01-06T00:26:42.905503138Z,-1.613692,0.966060,9.431060,0.249937,-0.093610,-0.444215
1980-01-06T00:26:42.925373503Z,-1.572991,0.843956,9.320927,0.285224,-0.139283,-0.430366
1980-01-06T00:26:42.945242044Z,-1.593341,0.870292,9.028834,0.286822,-0.120907,-0.415453
1980-01-06T00:26:42.965111159Z,-1.565808,0.827197,8.660127,0.257527,-0.057258,-0.402670
1980-01-06T00:26:43.024676888Z,-1.471237,0.806846,8.741529,0.055527,-0.026099,-0.223705
1980-01-06T00:26:43.044575742Z,-1.254562,0.975637,8.727164,-0.020506,0.044075,-0.221575
1980-01-06T00:26:43.064465013Z,-0.919373,0.944513,8.803779,-0.034754,0.018775,-0.219444
1980-01-06T00:26:43.084337096Z,-0.887052,0.942118,8.942642,-0.054994,-0.060720,-0.203465
1980-01-06T00:26:43.104174440Z,-0.961272,0.463278,8.813355,-0.198805,-0.061785,-0.152333
1980-01-06T00:26:43.124039909Z,-1.144428,0.575805,9.459790,-0.181494,-0.042611,-0.158724
1980-01-06T00:26:43.163824284Z,-0.889446,0.596156,9.579500,-0.174836,0.025167,-0.160855
1980-01-06T00:26:43.183652200Z,-0.908600,0.514753,9.502886,-0.120907,0.021971,-0.166181
1980-01-06T00:26:43.203500638Z,-0.779313,0.409408,9.186852,-0.116247,0.078031,-0.199204
1980-01-06T00:26:43.223407513Z,-0.761356,0.503979,9.110237,-0.109056,0.090015,-0.214118
1980-01-06T00:26:43.243278867Z,-0.852336,0.518345,8.846874,-0.153931,0.052864,-0.139550
1980-01-06T00:26:43.263148502Z,-0.890643,0.577003,8.899547,-0.152333,-0.013449,-0.055394
1980-01-06T00:26:43.322721159Z,-0.687136,0.292093,8.875605,-0.348874,-0.056858,-0.158724
1980-01-06T00:26:43.342622148Z,-0.705092,0.134075,8.856451,-0.397476,-0.086020,-0.142745
1980-01-06T00:26:43.362488867Z,-0.657208,0.049081,9.225159,-0.464721,-0.194144,-0.079895
1980-01-06T00:26:43.382358190Z,-0.713472,1.799243,16.316784,-0.762995,-0.446345,-0.074568
1980-01-06T00:26:43.402210013Z,-3.481169,-4.113238,4.666598,0.375905,-2.937065,1.096156
1980-01-06T00:26:43.422097044Z,2.178724,0.453701,9.191640,0.554736,-0.422643,-1.232510
1980-01-06T00:26:43.481692200Z,-0.132878,0.484826,9.919477,0.017311,-0.064049,-0.093743
1980-01-06T00:26:43.501538607Z,-0.041899,0.384269,9.976937,-0.129829,-0.012117,0.083091
1980-01-06T00:26:43.521398242Z,-0.248997,0.204704,9.862016,-0.098803,-0.015846,0.013848
1980-01-06T00:26:43.541301992Z,-0.158017,-0.246603,9.656115,-0.097871,-0.029162,-0.006392
1980-01-06T00:26:43.561419075Z,-0.268151,-0.818817,9.814132,-0.017444,-0.036219,-0.006392
1980-01-06T00:26:43.581283607Z,0.317232,0.488417,9.876381,-0.067511,-0.013982,-0.014914
1980-01-06T00:26:43.601054023Z,0.122104,0.169988,9.804555,0.015313,0.007057,-0.023436
1980-01-06T00:26:43.620760482Z,-0.223858,-1.052252,9.215582,-0.113584,0.000266,-0.015979
1980-01-06T00:26:43.640706367Z,0.019154,0.360327,9.938630,-0.040214,-0.011718,-0.012783
1980-01-06T00:26:43.660544752Z,0.014365,-0.004788,9.766248,0.006392,-0.007590,-0.013848
1980-01-06T00:26:43.680413659Z,-0.043096,-0.141258,9.814132,0.009188,-0.009454,-0.013848
1980-01-06T00:26:43.700275429Z,0.007183,-0.231040,9.732729,-0.000533,-0.009188,-0.013848
1980-01-06T00:26:43.720155742Z,-0.013168,-0.191536,9.775825,-0.003063,-0.008522,-0.014914
1980-01-06T00:26:43.740041575Z,-0.009577,-0.196325,9.742306,-0.004128,-0.009587,-0.014914
1980-01-06T00:26:43.779769179Z,-0.023942,-0.195127,9.785401,-0.003462,-0.008522,-0.013848
1980-01-06T00:26:43.799635534Z,-0.022745,-0.227449,9.718364,-0.002131,-0.008389,-0.014914
1980-01-06T00:26:43.819491315Z,-0.023942,-0.197522,9.766248,-0.001997,-0.009321,-0.013848
1980-01-06T00:26:43.839421106Z,-0.017957,-0.193930,9.761459,-0.001864,-0.007590,-0.013848
1980-01-06T00:26:43.859264544Z,-0.023942,-0.204704,9.727941,-0.002796,-0.007989,-0.013848
1980-01-06T00:26:43.879098450Z,-0.029928,-0.208296,9.751883,-0.003595,-0.007590,-0.012783
1980-01-06T00:26:43.938628815Z,-0.007183,-0.198719,9.747094,-0.002264,-0.007590,-0.013848
1980-01-06T00:26:43.958783763Z,-0.016759,-0.193930,9.748590,-0.003595,-0.007723,-0.013848
1980-01-06T00:26:43.978439283Z,-0.004788,-0.195127,9.748590,-0.002264,-0.007856,-0.013848
1980-01-06T00:26:43.998306002Z,-0.039504,-0.192733,9.762956,-0.002530,-0.007590,-0.012783
1980-01-06T00:26:44.018192356Z,-0.026336,-0.215478,9.748590,-0.002929,-0.008655,-0.013848
1980-01-06T00:26:44.038094075Z,-0.031125,-0.208296,9.743802,-0.002796,-0.007590,-0.013848
1980-01-06T00:26:44.077848763Z,-0.028730,-0.160412,9.753379,-0.002530,-0.008256,-0.014914
1980-01-06T00:26:44.097638398Z,0.028730,-0.156820,9.739014,-0.002264,-0.008522,-0.014914
1980-01-06T00:26:44.117734335Z,0.035913,-0.210690,9.739014,-0.003196,-0.008389,-0.013848
1980-01-06T00:26:44.137380117Z,-0.019154,-0.265756,9.748590,-0.005992,-0.008522,-0.014914
1980-01-06T00:26:44.157309804Z,-0.046687,-0.253785,9.715072,-0.002264,-0.007590,-0.013848
1980-01-06T00:26:44.177175898Z,-0.016759,-0.215478,9.727641,-0.000533,-0.008522,-0.014914
1980-01-06T00:26:44.197018242Z,-0.016759,-0.190339,9.746795,-0.000399,-0.008522,-0.014914
1980-01-06T00:26:44.236761992Z,-0.022745,-0.183156,9.737218,-0.003329,-0.008522,-0.013848
1980-01-06T00:26:44.256724127Z,-0.010774,-0.205901,9.751583,-0.003995,-0.007723,-0.013848
1980-01-06T00:26:44.276492825Z,-0.016759,-0.185551,9.751583,-0.003196,-0.007856,-0.013848
1980-01-06T00:26:44.296378033Z,-0.021548,-0.185551,9.751583,-0.002929,-0.008256,-0.013848
1980-01-06T00:26:44.316233085Z,-0.011971,-0.205901,9.751583,-0.002131,-0.008389,-0.014914
1980-01-06T00:26:44.336129752Z,-0.020351,-0.214281,9.746795,-0.003595,-0.007723,-0.013848
1980-01-06T00:26:44.395698710Z,0.002394,-0.213084,9.746795,-0.003063,-0.008655,-0.013848
1980-01-06T00:26:44.415594856Z,-0.027533,-0.210690,9.742006,-0.001864,-0.009188,-0.013848
1980-01-06T00:26:44.435463085Z,-0.022745,-0.187945,9.742006,-0.002530,-0.008256,-0.013848
1980-01-06T00:26:44.455361210Z,-0.039504,-0.185551,9.703699,-0.001997,-0.009587,-0.014914
1980-01-06T00:26:44.475179752Z,-0.020351,-0.202310,9.689334,-0.001332,-0.009188,-0.013848
1980-01-06T00:26:44.495063294Z,0.025139,-0.211887,9.761160,-0.001997,-0.008788,-0.013848
1980-01-06T00:26:44.554710794Z,-0.013168,-0.207098,9.794679,-0.002663,-0.007723,-0.013848
1980-01-06T00:26:44.574551367Z,-0.058658,-0.313640,9.464279,-0.001465,-0.007191,-0.014914
1980-01-06T00:26:44.594454439Z,-0.035913,-0.229843,9.737218,-0.001332,-0.010253,-0.013848
1980-01-06T00:26:44.614300325Z,0.019154,-0.209493,9.660604,-0.001731,-0.008522,-0.014914
1980-01-06T00:26:44.634201106Z,-0.023942,-0.181959,9.742006,-0.002530,-0.010653,-0.013848
