timestamp,accel_x,accel_y,accel_z,gyro_x,gyro_y,gyro_z
1980-01-06T00:27:04.762625994Z,0.035913,-0.251391,9.624392,-0.002131,-0.009587,-0.014381
1980-01-06T00:27:04.782538651Z,0.009577,-0.219069,9.739313,-0.003595,-0.008522,-0.015446
1980-01-06T00:27:04.802387088Z,-0.003591,-0.223858,9.705794,-0.002796,-0.007856,-0.014381
1980-01-06T00:27:04.822244015Z,-0.045490,-0.193930,9.720160,-0.004128,-0.008256,-0.015446
1980-01-06T00:27:04.842076776Z,-0.019154,-0.174777,9.748890,-0.004927,-0.008256,-0.014381
1980-01-06T00:27:04.901698546Z,-0.011971,-0.195127,9.710583,-0.003063,-0.009454,-0.014381
1980-01-06T00:27:04.921580005Z,-0.005986,-0.203507,9.710583,-0.002663,-0.008522,-0.014381
1980-01-06T00:27:04.941422921Z,-0.044293,-0.221464,9.696218,-0.001198,-0.007723,-0.014381
1980-01-06T00:27:04.961304536Z,-0.035913,-0.216675,9.682451,-0.000266,-0.007723,-0.013848
1980-01-06T00:27:04.981160317Z,0.002394,-0.203507,9.711182,-0.001997,-0.008788,-0.013848
1980-01-06T00:27:05.001021932Z,0.005986,-0.175974,9.701605,-0.003063,-0.007856,-0.013848
1980-01-06T00:27:05.060844536Z,-0.023942,-0.199916,9.715970,-0.002530,-0.008256,-0.013848
1980-01-06T00:27:05.080727192Z,-0.014365,-0.199916,9.715970,-0.003329,-0.008123,-0.013848
1980-01-06T00:27:05.100652348Z,0.005986,-0.190339,9.711182,-0.003063,-0.008788,-0.013848
1980-01-06T00:27:05.120463755Z,0.007183,-0.199916,9.725547,-0.001065,-0.007590,-0.012783
1980-01-06T00:27:05.140370317Z,-0.016759,-0.196325,9.706393,-0.001065,-0.008256,-0.013848
1980-01-06T00:27:05.160008077Z,-0.028730,-0.196325,9.711182,-0.002929,-0.008788,-0.013848
1980-01-06T00:27:05.199958650Z,-0.005986,-0.192733,9.696816,-0.001198,-0.007856,-0.014914
1980-01-06T00:27:05.219699848Z,0.000000,-0.203507,9.701605,-0.003063,-0.009188,-0.013848
1980-01-06T00:27:05.239545265Z,-0.011971,-0.192733,9.711182,-0.001465,-0.007989,-0.013848
1980-01-06T00:27:05.259351880Z,0.001197,-0.201113,9.706393,-0.002663,-0.008389,-0.014914
1980-01-06T00:27:05.279284380Z,-0.010774,-0.186748,9.701605,-0.002397,-0.007989,-0.013848
1980-01-06T00:27:05.299132817Z,-0.004788,-0.214281,9.706393,-0.002397,-0.007057,-0.014914
1980-01-06T00:27:05.319002713Z,-0.028730,-0.219069,9.701605,-0.002264,-0.008123,-0.013848
1980-01-06T00:27:05.358720473Z,-0.007183,-0.179565,9.720758,-0.001465,-0.008123,-0.013848
1980-01-06T00:27:05.378590525Z,-0.011971,-0.187945,9.715970,-0.003063,-0.009587,-0.013848
1980-01-06T00:27:05.398460473Z,-0.014365,-0.186748,9.701605,-0.002131,-0.007590,-0.013848
1980-01-06T00:27:05.418350004Z,-0.010774,-0.196325,9.701605,-0.002663,-0.008123,-0.013848
1980-01-06T00:27:05.438178963Z,-0.031125,-0.192733,9.715970,-0.001997,-0.009587,-0.014914
1980-01-06T00:27:05.458055213Z,-0.021548,-0.191536,9.711182,-0.002264,-0.007856,-0.013848
1980-01-06T00:27:05.498071411Z,-0.001197,-0.193930,9.711182,-0.001065,-0.008389,-0.013848
1980-01-06T00:27:05.517857869Z,-0.017957,-0.209493,9.715970,-0.001864,-0.008123,-0.013848
1980-01-06T00:27:05.537547556Z,-0.021548,-0.202310,9.706393,-0.001864,-0.008256,-0.013848
1980-01-06T00:27:05.557620213Z,-0.010774,-0.201113,9.687240,-0.003063,-0.009055,-0.013848
1980-01-06T00:27:05.577297400Z,0.241814,-0.053870,9.648932,-0.031026,-0.006392,-0.002131
1980-01-06T00:27:05.597201775Z,-0.052672,0.402226,9.974544,0.004128,0.002530,0.040480
1980-01-06T00:27:05.617065942Z,0.039504,-0.361524,9.759066,0.012251,-0.011718,-0.009587
1980-01-06T00:27:05.656784848Z,-0.217872,-0.244209,9.883564,0.006791,-0.004527,-0.028762
1980-01-06T00:27:05.676645629Z,0.077812,0.141258,9.711182,-0.017044,-0.003595,-0.021305
1980-01-06T00:27:05.696523911Z,0.028730,-0.237026,9.692028,-0.032491,-0.011185,-0.012783
1980-01-06T00:27:05.716362296Z,-0.014365,-0.202310,9.739912,0.002264,-0.011718,-0.011718
1980-01-06T00:27:05.736254067Z,-0.039504,-0.125696,9.749489,0.003063,-0.012650,-0.014914
1980-01-06T00:27:05.756126671Z,0.031125,-0.318429,9.557953,-0.023169,-0.003728,-0.018109
1980-01-06T00:27:05.815784744Z,-0.002394,-0.184354,9.730335,-0.011185,-0.007191,-0.013848
1980-01-06T00:27:05.835611515Z,0.001197,-0.314838,9.629779,-0.012251,-0.005060,-0.014914
1980-01-06T00:27:05.855664119Z,-0.089783,-0.199916,9.787796,-0.019042,-0.007457,-0.014914
1980-01-06T00:27:05.875339171Z,0.198719,-0.134075,9.596260,0.010919,-0.003196,-0.008522
1980-01-06T00:27:05.895238754Z,-0.057461,-0.126893,9.763854,0.016378,-0.003728,-0.003196
1980-01-06T00:27:05.915070004Z,0.032322,-0.284910,9.720758,-0.008256,-0.007590,0.020240
1980-01-06T00:27:05.954811358Z,-0.038307,-0.209493,9.720758,-0.009854,-0.010386,-0.014914
1980-01-06T00:27:05.974677088Z,-0.055067,-0.235829,9.768642,-0.005326,-0.010253,-0.017044
1980-01-06T00:27:05.994572713Z,0.061052,-0.203507,9.672874,0.004261,-0.008256,-0.011718
1980-01-06T00:27:06.014427140Z,-0.065841,-0.240617,9.668086,0.015979,-0.007989,-0.011718
1980-01-06T00:27:06.034301983Z,0.069432,-0.164003,9.739912,0.015313,-0.006392,-0.006392
1980-01-06T00:27:06.054139796Z,-0.099359,-0.198719,9.696816,0.008522,-0.002397,0.037284
1980-01-06T00:27:06.074036619Z,-0.069432,-0.259771,9.735124,0.038616,-0.008788,0.021305
1980-01-06T00:27:06.113772660Z,-0.051475,-0.148441,9.806950,0.015446,-0.010253,0.052198
1980-01-06T00:27:06.133643650Z,0.000000,-0.166397,10.237906,0.022504,-0.010786,0.105461
1980-01-06T00:27:06.153500213Z,0.059855,-0.623690,9.873987,-0.046472,-0.005992,0.083091
1980-01-06T00:27:06.173371931Z,0.271742,-0.629675,9.917083,-0.039814,-0.006525,-0.074568
1980-01-06T00:27:06.193253910Z,0.336385,-0.436942,9.538799,-0.075101,-0.001864,-0.166181
1980-01-06T00:27:06.213182660Z,0.375890,-0.632069,9.907506,-0.118910,-0.005459,-0.180030
1980-01-06T00:27:06.233021931Z,0.413000,-0.708684,9.840468,-0.252201,0.017177,-0.182160
1980-01-06T00:27:06.272746046Z,0.520739,-0.979228,9.854834,-0.269379,0.126367,-0.210922
1980-01-06T00:27:06.292640525Z,0.720655,-1.198298,9.964967,-0.231828,0.301070,-0.338754
1980-01-06T00:27:06.312492400Z,0.948104,-1.199495,10.051158,-0.242614,0.461659,-0.487891
1980-01-06T00:27:06.332347765Z,0.841562,-1.235408,9.998486,-0.286156,0.523577,-0.589091
1980-01-06T00:27:06.352412973Z,0.987608,-1.104924,10.348039,-0.273773,0.484961,-0.683899
1980-01-06T00:27:06.372313910Z,1.037886,-1.138443,10.506057,-0.178032,0.410393,-0.815992
1980-01-06T00:27:06.392149119Z,0.870292,-1.733402,10.601825,-0.166447,0.390286,-1.025849
1980-01-06T00:27:06.431712139Z,0.691924,-1.848324,10.884340,-0.334626,0.808002,-1.740641
1980-01-06T00:27:06.451571358Z,0.111330,-1.774103,11.257835,-0.378701,0.846751,-1.859950
1980-01-06T00:27:06.471485369Z,-0.210690,-1.332373,12.019192,-0.337822,0.989497,-1.955824
1980-01-06T00:27:06.491300212Z,-0.685939,-0.645237,12.976872,-0.068976,1.085770,-1.896169
1980-01-06T00:27:06.511181358Z,-1.229423,-0.539892,13.422194,0.285757,0.975781,-1.628788
1980-01-06T00:27:06.531039535Z,-1.626860,-0.822408,13.345579,0.560994,0.882171,-1.348624
1980-01-06T00:27:06.570806358Z,-2.655170,-0.931344,12.766183,0.799880,0.684698,-1.050350
1980-01-06T00:27:06.590675056Z,-2.759317,-0.444124,12.986449,1.186970,0.309992,-0.978977
1980-01-06T00:27:06.610540994Z,-3.797204,-0.791284,12.430994,0.613725,0.323973,-0.688160
1980-01-06T00:27:06.630409014Z,-4.018668,-0.235829,11.736676,1.056342,0.192280,-0.534762
1980-01-06T00:27:06.650267660Z,-4.410120,-0.246603,11.765407,1.429317,0.255930,-0.474042
1980-01-06T00:27:06.670167816Z,-4.483143,-0.084994,11.018415,1.478852,0.188818,-0.345145
1980-01-06T00:27:06.690045369Z,-4.296395,0.158017,10.357615,1.409610,-0.024634,-0.176834
1980-01-06T00:27:06.729783598Z,-4.217386,1.042675,9.859622,1.253016,-0.141946,0.096939
1980-01-06T00:27:06.749645421Z,-4.319140,1.393425,9.792584,1.295494,-0.188951,0.219444
1980-01-06T00:27:06.769541358Z,-4.259285,1.508347,9.763854,1.248622,-0.231961,0.351537
1980-01-06T00:27:06.789430681Z,-4.235343,1.849521,9.802161,1.217064,-0.226901,0.446345
1980-01-06T00:27:06.809294275Z,-4.356250,1.990779,9.773431,1.327185,-0.312921,0.532632
1980-01-06T00:27:06.829110160Z,-4.106056,2.015918,9.375993,1.317997,-0.322375,0.612527
1980-01-06T00:27:06.888703858Z,-3.262100,2.807201,8.360851,1.261405,-0.448609,0.849015
1980-01-06T00:27:06.908785056Z,-2.929306,2.970007,7.987356,1.344363,-0.434894,0.846884
1980-01-06T00:27:06.928669014Z,-3.027468,2.936488,7.388806,1.365268,-0.365385,0.879908
1980-01-06T00:27:06.948553337Z,-2.850297,3.004723,6.852505,1.287105,-0.222241,0.870320
1980-01-06T00:27:06.968399379Z,-2.652776,3.317167,6.766313,1.165398,-0.176967,0.962998
1980-01-06T00:27:06.988288077Z,-2.810793,3.326743,6.129456,1.047287,-0.108524,1.067394
1980-01-06T00:27:07.047667764Z,-1.853112,3.497929,5.473444,0.492818,0.066712,1.242097
1980-01-06T00:27:07.067560056Z,-1.851915,3.599682,5.291485,0.402004,0.049668,1.301752
1980-01-06T00:27:07.087413233Z,-1.871069,3.626019,5.147833,0.369247,0.031958,1.328384
1980-01-06T00:27:07.107279379Z,-1.411382,3.453636,5.085584,0.169244,0.094143,1.380581
1980-01-06T00:27:07.127158025Z,-0.870292,3.144784,4.860529,0.006258,0.206395,1.431714
1980-01-06T00:27:07.147219066Z,-0.342371,3.166332,4.764760,-0.112918,0.311856,1.475390
1980-01-06T00:27:07.186769275Z,0.612916,2.686294,4.827010,-0.211322,0.362722,1.419996
1980-01-06T00:27:07.206661150Z,0.872687,2.792836,4.769549,-0.280830,0.335691,1.358211
1980-01-06T00:27:07.226599639Z,0.936133,2.920926,4.568436,-0.233559,0.274172,1.282577
1980-01-06T00:27:07.246387295Z,0.931344,2.365471,4.410419,-0.308394,0.319979,1.239967
1980-01-06T00:27:07.266256775Z,1.082179,2.041057,4.788702,-0.532632,0.478436,1.260207
1980-01-06T00:27:07.286106306Z,1.176750,2.378639,5.444714,-0.642487,0.666322,1.220792
1980-01-06T00:27:07.345732347Z,1.083376,1.843535,6.978200,-0.644618,0.807070,1.045556
1980-01-06T00:27:07.365603962Z,1.456872,1.933318,7.605481,-0.716656,0.642887,1.041295
1980-01-06T00:27:07.385500629Z,1.893813,2.239776,7.485771,-0.720917,0.764460,0.952878
1980-01-06T00:27:07.405367660Z,2.315193,1.680730,7.548020,-0.672581,0.970189,0.826112
1980-01-06T00:27:07.425222035Z,2.519897,1.097741,8.084321,-0.807337,1.091096,0.673779
1980-01-06T00:27:07.445067243Z,2.203863,1.465251,9.170990,-0.982306,0.996687,0.542752
1980-01-06T00:27:07.504705577Z,1.764527,0.930147,10.272323,-0.910401,0.957272,0.059122
1980-01-06T00:27:07.524611774Z,1.393425,0.647632,10.372879,-0.943291,0.923317,-0.128364
1980-01-06T00:27:07.544680160Z,1.279701,0.661997,10.468647,-0.996288,0.855939,-0.243413
1980-01-06T00:27:07.564300733Z,1.234211,0.602142,10.717644,-0.988964,0.918790,-0.387223
1980-01-06T00:27:07.584157452Z,1.048660,0.682347,11.014524,-0.886166,0.909202,-0.534230
1980-01-06T00:27:07.604055108Z,0.697910,0.196325,11.105505,-0.793754,0.831172,-0.719586
1980-01-06T00:27:07.643763389Z,-0.231040,0.312443,11.167754,-0.730105,0.562060,-0.993358
1980-01-06T00:27:07.663660472Z,-0.429759,-0.099359,11.723208,-0.687628,0.489888,-1.049817
1980-01-06T00:27:07.683531879Z,-0.701501,-0.292093,10.827777,-0.401205,0.626774,-1.149952
1980-01-06T00:27:07.703402504Z,-0.502782,-0.298078,11.349713,-0.374041,0.615589,-1.179779
1980-01-06T00:27:07.723280524Z,-0.466869,-0.288501,11.435905,-0.198538,0.523843,-1.309741
1980-01-06T00:27:07.743134170Z,-1.049857,-0.717063,11.876437,-0.018775,0.489489,-1.555817
1980-01-06T00:27:07.763018233Z,-1.838747,-0.548272,12.542026,-0.106793,0.159790,-1.679388
1980-01-06T00:27:07.802742087Z,-3.181894,-0.040701,13.830106,-0.185755,-0.196807,-1.699628
1980-01-06T00:27:07.822623597Z,-3.594894,0.392649,14.543578,-0.100401,-0.310791,-1.634647
1980-01-06T00:27:07.842477139Z,-4.062960,0.587777,15.161283,0.049002,-0.370312,-1.604820
1980-01-06T00:27:07.862375733Z,-4.429273,0.609324,15.300146,0.149803,-0.503603,-1.543034
1980-01-06T00:27:07.882229431Z,-4.777629,0.620098,15.486894,0.218246,-0.722515,-1.440769
1980-01-06T00:27:07.902090004Z,-5.023035,1.067814,15.443798,0.346876,-0.874714,-1.323590
1980-01-06T00:27:07.961705472Z,-5.215768,1.344344,13.624205,0.995489,-0.669651,-0.883636
1980-01-06T00:27:07.981595941Z,-5.133168,1.308431,13.111846,1.052880,-0.553538,-0.734499
1980-01-06T00:27:08.001477816Z,-4.979939,1.714248,12.144588,1.142895,-0.491220,-0.619451
1980-01-06T00:27:08.021344483Z,-5.027823,1.878251,11.579556,1.240100,-0.608665,-0.482032
1980-01-06T00:27:08.041176670Z,-5.110424,2.199074,10.870872,1.338770,-0.685497,-0.321177
1980-01-06T00:27:08.061053806Z,-5.130774,2.489970,10.449493,1.612143,-0.590955,-0.216781
1980-01-06T00:27:08.100796514Z,-4.390966,2.782062,7.945158,1.704821,-0.367649,0.061253
1980-01-06T00:27:08.120680264Z,-4.305972,2.985569,7.121553,1.475789,-0.344080,0.340352
1980-01-06T00:27:08.140530055Z,-3.946841,3.151967,6.748057,1.356347,-0.111054,0.476705
1980-01-06T00:27:08.160477660Z,-3.817555,3.143587,6.585252,1.252084,0.001864,0.566188
1980-01-06T00:27:08.180293180Z,-3.732560,3.101688,6.216545,1.125850,-0.115847,0.660996
1980-01-06T00:27:08.200157608Z,-3.676297,3.547010,6.269217,1.066861,-0.296942,0.754739
1980-01-06T00:27:08.220029222Z,-3.606865,3.338714,5.924452,0.962998,-0.312122,0.885767
1980-01-06T00:27:08.259756670Z,-2.917335,3.104083,5.105635,0.505334,-0.129030,1.053013
1980-01-06T00:27:08.279615055Z,-2.530671,3.110068,5.100847,0.321443,-0.131027,1.168061
1980-01-06T00:27:08.299481878Z,-1.940500,3.144784,5.230134,0.196008,-0.062717,1.212803
1980-01-06T00:27:08.319361670Z,-1.449689,3.429694,5.637148,0.091746,-0.125435,1.311872
1980-01-06T00:27:08.339210316Z,-0.969652,3.318364,5.785588,0.075501,-0.057791,1.358744
1980-01-06T00:27:08.359086149Z,-0.460884,2.936488,5.910087,0.056459,0.020773,1.385375
1980-01-06T00:27:08.418713701Z,1.090559,2.389413,6.503849,-0.182293,0.461525,1.347026
1980-01-06T00:27:08.438557451Z,1.424550,2.537854,6.532579,-0.153132,0.578438,1.234108
1980-01-06T00:27:08.458458180Z,1.476025,2.256535,6.312313,-0.103197,0.470580,1.133973
1980-01-06T00:27:08.478325107Z,1.349133,1.944092,5.996278,-0.154863,0.447278,1.042360
1980-01-06T00:27:08.498159743Z,1.392228,1.942895,6.010643,-0.263919,0.499742,1.013598
1980-01-06T00:27:08.518041357Z,1.515530,2.171541,6.269217,-0.376304,0.636095,0.982706
1980-01-06T00:27:08.577695941Z,1.555034,1.872266,7.241263,-0.530102,0.601741,0.792023
1980-01-06T00:27:08.597566305Z,1.666364,2.096124,7.437588,-0.627440,0.708800,0.655670
1980-01-06T00:27:08.617461357Z,1.508347,2.031480,7.806294,-0.692022,0.617320,0.578971
1980-01-06T00:27:08.637303753Z,1.575385,1.582567,8.625112,-0.829441,0.607999,0.527838
1980-01-06T00:27:08.657173232Z,1.721431,1.842338,9.592369,-0.861266,0.676842,0.439421
1980-01-06T00:27:08.677070368Z,1.622072,2.032677,10.128671,-0.664591,0.665923,0.357396
1980-01-06T00:27:08.736635212Z,1.802834,0.981623,10.257957,-0.416784,0.897618,-0.102798
1980-01-06T00:27:08.756496409Z,1.728614,1.182736,10.344149,-0.520115,0.743021,-0.246609
1980-01-06T00:27:08.776396201Z,1.520318,1.753753,10.688913,-0.634231,0.560728,-0.388289
1980-01-06T00:27:08.796248545Z,0.878672,1.746570,10.708067,-0.607467,0.436625,-0.547013
1980-01-06T00:27:08.816109274Z,0.337582,1.308431,10.842142,-0.522245,0.384028,-0.720651
1980-01-06T00:27:08.875970264Z,-0.513556,1.156399,10.933122,-0.628239,0.200270,-0.867657
1980-01-06T00:27:08.895585264Z,-0.494403,1.374272,11.316195,-0.555135,0.175236,-0.911333
1980-01-06T00:27:08.915445680Z,-0.745794,0.630872,10.047267,-0.409727,0.224371,-0.960335
1980-01-06T00:27:08.935327451Z,-0.472855,0.351948,10.779893,-0.477238,0.235290,-1.016794
1980-01-06T00:27:08.955195055Z,-0.434548,0.487220,10.588357,-0.609597,0.272441,-1.100950
1980-01-06T00:27:08.975075264Z,-0.520739,0.579397,11.115082,-0.570449,0.096273,-1.181910
1980-01-06T00:27:09.034657763Z,-0.766145,-0.046687,12.221203,-0.683899,-0.967526,-1.527055
1980-01-06T00:27:09.054541722Z,-1.238999,0.372298,12.403162,-0.649544,-1.074718,-1.490836
1980-01-06T00:27:09.074422295Z,-1.580173,0.531513,12.609063,-0.533830,-0.659798,-1.390702
1980-01-06T00:27:09.094258649Z,-1.655591,0.628478,12.867637,-0.419181,-0.188685,-1.279914
1980-01-06T00:27:09.114144638Z,-1.728614,0.424971,13.480553,-0.256329,0.016645,-1.258609
1980-01-06T00:27:09.134023805Z,-1.734599,0.609324,13.911509,-0.088417,-0.194144,-1.332112
1980-01-06T00:27:09.193650836Z,-3.333926,1.045069,12.743138,0.546480,-0.379234,-1.230912
1980-01-06T00:27:09.213557972Z,-3.515885,1.027112,12.546814,0.716257,-0.199071,-1.104146
1980-01-06T00:27:09.233374378Z,-4.061763,0.933739,12.431892,0.826511,-0.206262,-0.988032
1980-01-06T00:27:09.253308909Z,-4.308366,1.154005,12.225991,0.856472,-0.280830,-0.832503
1980-01-06T00:27:09.273100315Z,-4.268862,1.762132,11.646594,0.953411,-0.251269,-0.697215
1980-01-06T00:27:09.293001513Z,-4.234146,1.976413,11.474212,1.064997,-0.275903,-0.508663
1980-01-06T00:27:09.332743180Z,-3.094506,1.966837,10.535685,1.192696,-0.126500,-0.292415
1980-01-06T00:27:09.352609118Z,-2.896984,1.902193,10.157401,1.162868,-0.243546,-0.207194
1980-01-06T00:27:09.372484482Z,-3.368642,1.782483,9.822212,1.151017,-0.456599,-0.160322
1980-01-06T00:27:09.392375159Z,-3.900155,1.957260,9.539697,1.084438,-0.591488,-0.025034
1980-01-06T00:27:09.412227920Z,-4.084508,2.458845,9.405622,1.120657,-0.545948,0.149670
1980-01-06T00:27:09.432070576Z,-4.033033,2.835932,8.783129,1.312538,-0.393215,0.299872
1980-01-06T00:27:09.491709430Z,-2.700660,2.622848,6.612486,1.211737,-0.056459,0.775512
1980-01-06T00:27:09.511585420Z,-2.304419,2.713828,6.588544,1.070190,-0.157393,0.928910
1980-01-06T00:27:09.531435367Z,-1.738190,2.782062,6.076185,0.812397,-0.114649,0.961933
1980-01-06T00:27:09.551313128Z,-1.598130,2.919729,6.100127,0.629571,-0.065780,1.056741
1980-01-06T00:27:09.571195420Z,-1.291672,2.968810,5.922956,0.511859,-0.011052,1.165398
1980-01-06T00:27:09.591062295Z,-0.580594,2.706645,5.922956,0.460194,0.141281,1.189899
1980-01-06T00:27:09.630777815Z,0.444124,2.695871,6.454469,0.179630,0.092944,1.198421
1980-01-06T00:27:09.650648440Z,0.633266,2.740164,6.344335,0.191747,0.078963,1.169659
1980-01-06T00:27:09.670544534Z,1.034295,2.519897,6.258144,0.152998,0.175635,1.144093
1980-01-06T00:27:09.690378857Z,1.540669,2.759317,6.195895,0.068177,0.309992,1.098287
1980-01-06T00:27:09.710257867Z,1.617283,2.819172,5.908590,0.053929,0.364054,1.046089
1980-01-06T00:27:09.730113753Z,1.435324,2.600103,5.769727,-0.037551,0.400006,0.978977
1980-01-06T00:27:09.750021722Z,1.553837,2.536657,5.937321,-0.209591,0.379101,0.931040
1980-01-06T00:27:09.809660888Z,1.543063,2.580950,6.933309,-0.516520,0.601474,0.825579
1980-01-06T00:27:09.829462138Z,1.736993,2.284068,7.354688,-0.569650,0.573245,0.784034
1980-01-06T00:27:09.849355367Z,2.176329,2.055422,7.852682,-0.679372,0.570981,0.728640
1980-01-06T00:27:09.869231097Z,2.434903,2.256535,8.063372,-0.748214,0.669518,0.594417
1980-01-06T00:27:09.889137138Z,2.316390,2.345121,8.168717,-0.795885,0.602939,0.468716
1980-01-06T00:27:09.928814794Z,2.721010,1.842338,9.351453,-0.891492,0.626508,0.251402
1980-01-06T00:27:09.948715888Z,2.485181,1.617283,9.365818,-0.835167,0.646881,0.087352
1980-01-06T00:27:09.968566930Z,2.211045,2.148796,9.964368,-0.751810,0.575509,-0.103331
1980-01-06T00:27:09.988504221Z,1.699883,1.880645,9.844658,-0.719852,0.371244,-0.166181
1980-01-06T00:27:10.008321878Z,1.453280,1.392228,10.242096,-0.740758,0.392150,-0.220510
1980-01-06T00:27:10.028175003Z,1.089362,1.449689,10.538977,-0.658200,0.499342,-0.323840
1980-01-06T00:27:10.048066305Z,0.718261,1.534683,10.797550,-0.611195,0.503736,-0.418649
1980-01-06T00:27:10.087805367Z,0.811634,1.557428,11.721712,-0.507465,0.164184,-0.496413
1980-01-06T00:27:10.107665471Z,0.690727,1.651999,11.898883,-0.341683,0.197606,-0.641289
1980-01-06T00:27:10.127530107Z,0.403423,1.816002,11.501446,-0.164583,0.128231,-0.717988
1980-01-06T00:27:10.147393909Z,-0.308852,1.867477,11.343429,-0.003196,0.030360,-0.733967
1980-01-06T00:27:10.167298648Z,-0.786495,1.187524,10.706571,-0.079762,0.077498,-0.684964
1980-01-06T00:27:10.187161669Z,-1.171962,1.027112,10.543765,-0.035953,-0.071772,-0.730771
1980-01-06T00:27:10.246849378Z,-2.100912,1.806425,10.467151,-0.154730,-0.149270,-0.427171
1980-01-06T00:27:10.266603596Z,-1.651999,1.747767,10.088866,-0.065780,0.121440,-0.396278
1980-01-06T00:27:10.286501461Z,-1.613692,1.501164,10.040982,-0.041678,0.121041,-0.338754
1980-01-06T00:27:10.306374534Z,-1.638831,1.496376,10.045771,-0.124370,0.025833,-0.307861
1980-01-06T00:27:10.326243023Z,-1.636437,1.556231,10.088866,-0.155928,-0.122372,-0.281230
1980-01-06T00:27:10.346097971Z,-1.527501,1.668759,10.112808,-0.181095,-0.171907,-0.236489
1980-01-06T00:27:10.405724273Z,-1.095347,1.393425,10.112808,0.112518,0.047537,-0.172573
1980-01-06T00:27:10.425563075Z,-1.057040,1.483208,10.103231,0.092944,0.003728,-0.121440
1980-01-06T00:27:10.445434221Z,-0.955287,1.513135,9.926061,0.087352,-0.004927,-0.109722
1980-01-06T00:27:10.465487398Z,-0.957681,1.528698,9.696218,0.078563,0.003196,-0.117179
1980-01-06T00:27:10.485408075Z,-0.889446,1.675941,9.610026,0.057258,0.003995,-0.077764
1980-01-06T00:27:10.505196721Z,-0.635661,1.571793,9.533412,0.054994,0.082025,-0.096939
1980-01-06T00:27:10.525117294Z,-0.488417,1.558625,9.681852,0.035819,0.064715,-0.111853
1980-01-06T00:27:10.564690471Z,-0.484826,1.546654,9.815928,0.092412,-0.078031,-0.147006
1980-01-06T00:27:10.584572607Z,-0.600945,1.555034,9.796774,0.233958,-0.158325,-0.140615
1980-01-06T00:27:10.604417919Z,-0.824802,1.419762,9.384972,0.322242,-0.185223,-0.137419
1980-01-06T00:27:10.624272398Z,-0.900220,1.376666,9.011476,0.307062,-0.167646,-0.112918
1980-01-06T00:27:10.644163075Z,-0.970849,1.332373,8.594885,0.231162,-0.082957,-0.111853
1980-01-06T00:27:10.664040367Z,-0.752976,1.389834,8.676288,0.135688,0.045673,-0.091613
1980-01-06T00:27:10.703749169Z,-0.592565,1.715446,8.427291,0.148604,-0.076166,-0.192813
1980-01-06T00:27:10.723622190Z,-0.761356,1.796848,8.336311,0.149536,-0.198938,-0.156594
1980-01-06T00:27:10.743508336Z,-0.803255,1.683124,8.264485,0.085221,-0.159523,-0.100135
1980-01-06T00:27:10.763380315Z,-0.507571,1.517924,8.566154,0.012117,-0.032091,-0.127832
1980-01-06T00:27:10.783282554Z,-0.324414,1.577779,8.858247,-0.058456,0.012650,-0.188552
1980-01-06T00:27:10.803117763Z,-0.307655,1.558625,8.973168,-0.116913,-0.073370,-0.215183
1980-01-06T00:27:10.862897867Z,-0.934936,1.504756,9.911695,-0.308793,-0.090148,-0.189617
1980-01-06T00:27:10.882592711Z,-0.936133,1.707066,9.495105,-0.385759,0.089748,-0.207726
1980-01-06T00:27:10.902478388Z,-0.930147,1.545457,9.930849,-0.329433,0.037950,-0.160855
1980-01-06T00:27:10.922376096Z,-0.945710,1.499967,9.935637,-0.317315,0.017976,-0.118244
1980-01-06T00:27:10.942236825Z,-1.053449,1.467646,10.021829,-0.285491,-0.027297,-0.072438
1980-01-06T00:27:10.962067034Z,-1.012747,1.094150,9.959579,-0.281629,0.002264,-0.116114
1980-01-06T00:27:11.002018075Z,-0.890643,1.520318,10.160693,-0.153664,-0.060853,-0.117179
1980-01-06T00:27:11.021684481Z,-1.022324,1.458069,9.892542,-0.111586,-0.037551,-0.053263
1980-01-06T00:27:11.041549794Z,-0.978031,1.499967,10.280403,-0.073503,-0.005593,-0.025566
1980-01-06T00:27:11.061413336Z,-0.639252,1.437718,10.213366,-0.097738,-0.015446,-0.076699
1980-01-06T00:27:11.081273388Z,-0.663194,1.448492,9.734525,-0.038483,-0.036485,-0.144876
1980-01-06T00:27:11.101347502Z,-0.895431,1.408988,9.485528,0.083756,0.031825,-0.115048
1980-01-06T00:27:11.121002138Z,-0.804452,1.091756,10.510246,0.023569,0.150202,-0.188552
1980-01-06T00:27:11.160756669Z,-0.355539,1.471237,10.002675,-0.169111,-0.043409,-0.153398
1980-01-06T00:27:11.180639169Z,-0.714669,1.150414,9.844658,-0.150868,-0.105195,-0.116114
1980-01-06T00:27:11.200468492Z,-0.438139,1.024718,9.782409,-0.176967,-0.089882,-0.168312
1980-01-06T00:27:11.220375106Z,-0.401029,0.882263,9.408914,-0.281096,-0.143278,-0.126766
1980-01-06T00:27:11.240257971Z,-0.389058,0.450110,9.370606,-0.419581,-0.134623,-0.155528
1980-01-06T00:27:11.260103023Z,-0.132878,0.858321,9.648334,-0.486959,-0.193079,-0.177899
1980-01-06T00:27:11.280028283Z,-0.173580,0.985214,9.681852,-0.386557,-0.257394,-0.184291
1980-01-06T00:27:11.319798752Z,-0.672771,0.244209,9.696218,-0.417983,-0.195875,-0.145941
1980-01-06T00:27:11.339599638Z,-0.647632,0.612916,10.251673,-0.409328,-0.004128,-0.126766
1980-01-06T00:27:11.359479273Z,-0.689530,0.362722,9.777620,-0.270976,0.155129,-0.135288
1980-01-06T00:27:11.379432138Z,-0.511162,0.208296,10.040982,-0.157526,0.144610,-0.145941
1980-01-06T00:27:11.399235992Z,-0.922965,0.029928,10.510246,-0.198139,-0.002131,-0.107592
1980-01-06T00:27:11.419077242Z,-1.037886,0.181959,10.706571,-0.346743,-0.152333,-0.057524
1980-01-06T00:27:11.439170731Z,-1.152808,0.058658,10.289980,-0.336091,-0.287488,-0.003196
1980-01-06T00:27:11.478882242Z,-1.185130,0.058658,10.572495,0.257261,-1.246625,-0.001065
1980-01-06T00:27:11.498550731Z,-0.205901,0.251391,11.300333,0.261123,-0.066179,-0.253533
1980-01-06T00:27:11.518408752Z,0.122104,-0.164003,9.744102,-0.070973,-0.040613,0.015979
1980-01-06T00:27:11.538306565Z,0.068235,-0.138864,9.782409,0.001198,0.001465,-0.053263
1980-01-06T00:27:11.558174794Z,-0.074220,-0.158017,9.686641,-0.048603,-0.029295,-0.057524
1980-01-06T00:27:11.578163596Z,0.029928,-0.041899,9.796774,-0.039415,-0.019974,-0.013848
1980-01-06T00:27:11.637657762Z,-0.082600,-0.160412,9.763255,-0.005060,-0.014781,-0.011718
1980-01-06T00:27:11.657709742Z,0.153229,-0.136469,9.686641,-0.025833,-0.010786,-0.010653
1980-01-06T00:27:11.677577242Z,-0.337582,0.201113,9.724948,-0.070174,0.034088,-0.018109
1980-01-06T00:27:11.697272502Z,-0.318429,0.126893,10.045771,0.021039,-0.014781,-0.011718
1980-01-06T00:27:11.717117242Z,0.161609,-0.270545,9.640553,0.022104,-0.012650,-0.014381
1980-01-06T00:27:11.737011825Z,-0.049081,-0.363919,9.669283,0.000133,-0.003595,-0.015446
1980-01-06T00:27:11.776731460Z,0.041899,-0.168791,9.760262,-0.008922,-0.009454,-0.014381
1980-01-06T00:27:11.796590158Z,-0.034716,-0.154426,9.774628,-0.002929,-0.007856,-0.014381
1980-01-06T00:27:11.816453544Z,-0.010774,-0.187945,9.750686,0.002131,-0.007590,-0.013316
1980-01-06T00:27:11.836340679Z,-0.002394,-0.219069,9.731532,-0.000666,-0.008522,-0.014381
1980-01-06T00:27:11.856225627Z,-0.005986,-0.229843,9.731532,-0.003329,-0.008123,-0.014381
1980-01-06T00:27:11.876187033Z,-0.003591,-0.214281,9.726744,-0.002796,-0.008123,-0.014381
1980-01-06T00:27:11.935717658Z,-0.017957,-0.204704,9.745897,-0.001864,-0.008123,-0.014381
1980-01-06T00:27:11.955586408Z,-0.021548,-0.219069,9.736320,-0.001997,-0.009188,-0.015446
1980-01-06T00:27:11.975464325Z,-0.019154,-0.215478,9.736320,-0.001198,-0.008256,-0.015446
1980-01-06T00:27:11.995302346Z,-0.010774,-0.196325,9.736320,-0.001997,-0.009587,-0.015446
1980-01-06T00:27:12.015191929Z,-0.005986,-0.192733,9.745897,-0.001065,-0.008123,-0.014381
1980-01-06T00:27:12.035059377Z,-0.014365,-0.197522,9.736320,-0.001065,-0.007723,-0.014381
1980-01-06T00:27:12.074793804Z,-0.014365,-0.203507,9.726744,-0.003063,-0.009188,-0.014381
1980-01-06T00:27:12.114520210Z,-0.021548,-0.199916,9.739313,-0.001997,-0.009587,-0.014914
1980-01-06T00:27:12.134408804Z,-0.032322,-0.229843,9.696218,-0.001198,-0.007590,-0.013848
1980-01-06T00:27:12.154292398Z,-0.039504,-0.241814,9.648334,-0.000799,-0.009188,-0.013848
1980-01-06T00:27:12.174162814Z,0.014365,-0.202310,9.787197,-0.002264,-0.008655,-0.012783
1980-01-06T00:27:12.194024169Z,-0.015562,-0.201113,9.729736,-0.002264,-0.008123,-0.013848
1980-01-06T00:27:12.233774325Z,-0.021548,-0.213084,9.758467,-0.002397,-0.008522,-0.014914
1980-01-06T00:27:12.253619325Z,-0.028730,-0.217872,9.720160,-0.002796,-0.009321,-0.013848
1980-01-06T00:27:12.273463491Z,-0.021548,-0.197522,9.724948,-0.001864,-0.009454,-0.013848
1980-01-06T00:27:12.293356564Z,-0.009577,-0.173580,9.748890,-0.000266,-0.009321,-0.013848
1980-01-06T00:27:12.313223023Z,-0.015562,-0.180762,9.758467,-0.002796,-0.008522,-0.013848
