timestamp,accel_x,accel_y,accel_z,gyro_x,gyro_y,gyro_z
1980-01-06T00:28:41.351645385Z,-0.013168,-0.191536,9.698013,-0.001997,-0.008788,-0.014381
1980-01-06T00:28:41.371574135Z,-0.014365,-0.175974,9.731532,-0.002796,-0.009188,-0.014381
1980-01-06T00:28:41.391436687Z,0.009577,-0.177171,9.678860,-0.001598,-0.008123,-0.014381
1980-01-06T00:28:41.411282364Z,0.008380,-0.191536,9.726744,-0.001997,-0.009055,-0.014381
1980-01-06T00:28:41.431156270Z,-0.005986,-0.213084,9.707590,-0.001997,-0.009188,-0.014381
1980-01-06T00:28:41.451023197Z,0.002394,-0.214281,9.702802,-0.001465,-0.009587,-0.014381
1980-01-06T00:28:41.510644864Z,-0.009577,-0.201113,9.702802,-0.002796,-0.008655,-0.014381
1980-01-06T00:28:41.530521530Z,-0.004788,-0.202310,9.726744,-0.002131,-0.007723,-0.014381
1980-01-06T00:28:41.550367676Z,-0.022745,-0.195127,9.702802,-0.002264,-0.008256,-0.015446
1980-01-06T00:28:41.570437207Z,0.004788,-0.204704,9.707590,-0.001332,-0.009321,-0.014381
1980-01-06T00:28:41.590343301Z,-0.005986,-0.195127,9.717167,-0.003196,-0.008256,-0.014381
1980-01-06T00:28:41.649697989Z,-0.003591,-0.225055,9.707590,-0.002264,-0.007723,-0.014381
1980-01-06T00:28:41.669585541Z,-0.023942,-0.207098,9.707590,-0.002131,-0.007723,-0.013316
1980-01-06T00:28:41.689496791Z,0.001197,-0.216675,9.717167,-0.002796,-0.007723,-0.014381
1980-01-06T00:28:41.709316791Z,-0.017957,-0.205901,9.712379,-0.002929,-0.008655,-0.014381
1980-01-06T00:28:41.729194811Z,-0.003591,-0.209493,9.721955,-0.003862,-0.007989,-0.014381
1980-01-06T00:28:41.749050957Z,-0.011971,-0.207098,9.712379,-0.003462,-0.008522,-0.015446
1980-01-06T00:28:41.808874707Z,-0.009577,-0.192733,9.717167,-0.002264,-0.007590,-0.014381
1980-01-06T00:28:41.828740280Z,-0.011971,-0.197522,9.712379,-0.002131,-0.008256,-0.014381
1980-01-06T00:28:41.848387311Z,-0.010774,-0.201113,9.698013,-0.002663,-0.007989,-0.014381
1980-01-06T00:28:41.868279603Z,-0.014365,-0.197522,9.712379,-0.002264,-0.007723,-0.014381
1980-01-06T00:28:41.888134238Z,-0.004788,-0.677559,9.290999,-0.005060,0.006658,-0.015446
1980-01-06T00:28:41.908025488Z,-0.124498,-0.439336,9.650129,0.005459,-0.008256,-0.017577
1980-01-06T00:28:41.947748613Z,0.007183,-0.275333,9.650129,0.000932,-0.010253,-0.016512
1980-01-06T00:28:41.967616426Z,-0.043096,-0.175974,9.755474,0.002663,-0.011984,-0.020773
1980-01-06T00:28:41.987527988Z,0.156820,-0.080206,9.717167,0.002131,-0.006924,-0.042078
1980-01-06T00:28:42.007363509Z,-0.003591,-0.286107,9.736320,-0.006125,-0.009055,-0.015446
1980-01-06T00:28:42.027263874Z,0.057461,-0.339977,9.616611,-0.003728,-0.001598,-0.017577
1980-01-06T00:28:42.047115541Z,-0.101754,-0.490811,9.674071,-0.048736,-0.002264,-0.023968
1980-01-06T00:28:42.067012311Z,-0.149638,-0.166397,9.712379,-0.041812,-0.011452,-0.028229
1980-01-06T00:28:42.106741738Z,-0.107739,-0.266953,9.654918,-0.006258,-0.011718,-0.088950
1980-01-06T00:28:42.126632311Z,0.275333,-0.599748,9.674071,0.015047,-0.008389,-0.034621
1980-01-06T00:28:42.146476478Z,-0.287304,-0.480037,9.865607,0.035154,0.013183,-0.070840
1980-01-06T00:28:42.166354290Z,0.149638,-0.779313,10.306141,-0.047138,0.104263,-0.206128
1980-01-06T00:28:42.186232520Z,-0.708684,-0.039504,11.555914,-0.261789,0.405732,-0.114516
1980-01-06T00:28:42.206109811Z,-0.254982,1.343147,12.810475,0.074435,0.291882,-0.041013
1980-01-06T00:28:42.265697676Z,-0.568623,-0.014365,11.752238,0.444082,0.361124,-0.017577
1980-01-06T00:28:42.285735540Z,-0.427365,0.082600,11.402685,0.346477,0.241549,0.028229
1980-01-06T00:28:42.305424707Z,-0.460884,0.292093,11.259033,0.332096,0.066978,0.120907
1980-01-06T00:28:42.325342988Z,-0.413000,0.296881,10.603022,0.415985,0.055261,0.133691
1980-01-06T00:28:42.345197988Z,-0.521936,0.075417,9.942222,0.493483,0.140215,0.114516
1980-01-06T00:28:42.365070592Z,-0.265756,0.108936,9.391556,0.455134,0.236089,0.140082
1980-01-06T00:28:42.424695540Z,-0.444124,0.014365,7.696461,0.260856,-0.065381,0.223173
1980-01-06T00:28:42.444538092Z,-0.337582,0.690727,9.061155,0.315451,-0.228233,0.259392
1980-01-06T00:28:42.464460332Z,-0.105345,0.142455,8.869619,-0.193612,-0.229697,0.321177
1980-01-06T00:28:42.484275488Z,0.049081,0.492008,8.879196,-0.177899,-0.272974,0.218912
1980-01-06T00:28:42.504140488Z,-0.311246,0.538695,8.381203,0.159257,-0.242481,0.182693
1980-01-06T00:28:42.524032415Z,-0.335188,0.529119,8.505701,0.230496,-0.126101,0.174171
1980-01-06T00:28:42.563772832Z,-0.288501,0.638055,8.438663,0.249005,0.239817,0.093211
1980-01-06T00:28:42.583635176Z,-0.150835,0.265756,8.438663,0.120907,0.275237,0.012251
1980-01-06T00:28:42.603471374Z,-0.219069,0.398635,8.840889,-0.018109,0.135155,-0.018642
1980-01-06T00:28:42.623375801Z,-0.287304,0.699107,8.936657,-0.070441,-0.013848,-0.007989
1980-01-06T00:28:42.643207363Z,-0.464475,0.502782,8.979753,0.001864,0.055127,-0.044208
1980-01-06T00:28:42.663098561Z,-0.477643,0.231040,9.295788,-0.055926,0.214517,-0.051665
1980-01-06T00:28:42.722690124Z,0.050278,-0.008380,10.162488,-0.144476,0.450873,-0.273240
1980-01-06T00:28:42.742583092Z,0.177171,-0.021548,10.580576,-0.143544,0.327835,-0.313187
1980-01-06T00:28:42.762422467Z,0.114922,0.023942,10.642825,-0.053529,0.325837,-0.398409
1980-01-06T00:28:42.782327155Z,0.201113,-0.150835,10.446501,0.013582,0.366717,-0.477238
1980-01-06T00:28:42.802211478Z,0.231040,-0.081403,10.379463,0.060587,0.400406,-0.520914
1980-01-06T00:28:42.822118405Z,0.276530,-0.071826,10.566211,0.022237,0.328367,-0.579503
1980-01-06T00:28:42.881667103Z,-0.429759,0.543484,10.934917,0.052198,0.088017,-0.775512
1980-01-06T00:28:42.901546946Z,-0.635661,0.685939,11.140819,0.196008,0.195742,-0.834101
1980-01-06T00:28:42.921438353Z,-0.745794,0.628478,11.102511,0.274172,0.293880,-0.894821
1980-01-06T00:28:42.941281894Z,-0.709881,0.602142,11.064204,0.276969,0.273107,-0.917192
1980-01-06T00:28:42.961184551Z,-0.723049,0.647632,11.375451,0.275504,0.210256,-0.909735
1980-01-06T00:28:42.981037259Z,-1.108515,0.873884,11.466431,0.307329,0.158058,-0.887365
1980-01-06T00:28:43.020781894Z,-1.614889,0.933739,11.456854,0.461259,0.356996,-0.895887
1980-01-06T00:28:43.040639134Z,-1.596933,1.248576,11.614871,0.531567,0.239285,-0.911866
1980-01-06T00:28:43.060532103Z,-1.738190,1.268927,11.365874,0.608798,0.063916,-0.912931
1980-01-06T00:28:43.080370228Z,-2.088941,1.507150,11.354801,0.630370,-0.034088,-0.913463
1980-01-06T00:28:43.100236790Z,-2.258929,1.549049,11.201571,0.627707,-0.128364,-0.861266
1980-01-06T00:28:43.120382363Z,-2.894590,1.957260,11.105803,0.689225,-0.095341,-0.782436
1980-01-06T00:28:43.140181426Z,-3.427300,2.270900,11.033978,0.849947,0.046605,-0.692954
1980-01-06T00:28:43.160061217Z,-3.671508,2.117671,10.694001,0.950481,0.156860,-0.604537
1980-01-06T00:28:43.179739915Z,-4.198233,2.108095,10.598233,0.994956,0.196541,-0.565122
1980-01-06T00:28:43.199795332Z,-4.552575,2.613271,10.583868,0.846485,0.288820,-0.483097
1980-01-06T00:28:43.219469915Z,-4.868609,3.174711,10.454581,0.743554,0.385359,-0.313720
1980-01-06T00:28:43.239321061Z,-4.729745,3.460819,10.722732,0.831971,0.339553,-0.167779
1980-01-06T00:28:43.259218196Z,-4.637568,3.643975,10.521619,0.884036,0.202800,-0.039947
1980-01-06T00:28:43.279075488Z,-4.808754,3.590106,10.562919,1.197356,-0.109855,0.049535
1980-01-06T00:28:43.338703769Z,-5.178658,2.971204,8.307581,1.123453,-0.164317,0.439421
1980-01-06T00:28:43.358586582Z,-4.818331,3.086126,8.259697,0.921986,-0.145408,0.559796
1980-01-06T00:28:43.378432415Z,-4.531027,3.465607,8.365042,0.830906,-0.161121,0.606668
1980-01-06T00:28:43.398305957Z,-4.499902,3.849876,8.566154,0.843156,-0.301603,0.721716
1980-01-06T00:28:43.418212623Z,-4.572925,4.305972,8.422503,1.026115,-0.361391,0.846352
1980-01-06T00:28:43.438027363Z,-3.960010,3.824737,7.790433,1.181777,-0.281230,0.945421
1980-01-06T00:28:43.497636582Z,-3.675100,3.721786,5.927744,0.836232,-0.221841,1.188301
1980-01-06T00:28:43.517531061Z,-3.544616,4.139575,5.654805,0.728907,-0.288021,1.290567
1980-01-06T00:28:43.537383040Z,-3.019088,4.226963,5.420173,0.642354,-0.350871,1.367266
1980-01-06T00:28:43.557273665Z,-2.410961,4.011485,5.257368,0.566853,-0.297342,1.452487
1980-01-06T00:28:43.577147259Z,-1.739388,3.915717,5.156811,0.422910,-0.191881,1.535577
1980-01-06T00:28:43.597014602Z,-1.058237,3.907337,5.324405,0.339686,-0.164450,1.598428
1980-01-06T00:28:43.636724550Z,-0.098162,3.818752,5.424962,0.197340,-0.029428,1.556883
1980-01-06T00:28:43.656609446Z,0.160412,3.851074,5.453692,0.132625,-0.047271,1.588841
1980-01-06T00:28:43.676484602Z,0.186748,3.804387,5.357924,0.107325,0.088417,1.581384
1980-01-06T00:28:43.696341686Z,0.289698,3.703830,5.659594,0.089349,0.275504,1.632516
1980-01-06T00:28:43.716273144Z,0.292093,3.633201,6.143222,0.052464,0.424508,1.727325
1980-01-06T00:28:43.736128561Z,1.159991,3.503914,6.296451,0.140615,0.471512,1.589906
1980-01-06T00:28:43.756016009Z,1.800440,3.630807,6.387431,0.215583,0.191481,1.508946
1980-01-06T00:28:43.795711373Z,1.569399,3.629610,5.381866,0.105195,0.140215,1.365135
1980-01-06T00:28:43.815553144Z,1.675941,3.648763,5.243002,-0.083091,0.418782,1.356613
1980-01-06T00:28:43.835402467Z,1.994370,3.688268,5.630863,-0.232893,0.702941,1.345960
1980-01-06T00:28:43.855336738Z,2.190695,3.912126,6.061820,-0.254065,0.821984,1.316133
1980-01-06T00:28:43.875215488Z,2.437297,3.489549,6.387431,-0.276835,0.844088,1.217064
1980-01-06T00:28:43.895122102Z,2.845509,3.295619,6.689100,-0.370179,0.860600,1.066861
1980-01-06T00:28:43.915022779Z,2.833538,3.544616,6.746561,-0.460593,0.740491,0.951813
1980-01-06T00:28:43.954702311Z,2.353500,3.276465,7.436091,-0.540888,0.578172,0.784567
1980-01-06T00:28:43.974561634Z,2.038663,2.901772,7.618051,-0.520514,0.587360,0.714259
1980-01-06T00:28:43.994416217Z,1.869871,2.576161,7.713819,-0.539955,0.630769,0.658866
1980-01-06T00:28:44.014314811Z,1.780089,2.725799,7.843105,-0.620250,0.693487,0.656735
1980-01-06T00:28:44.034159446Z,1.837550,2.779668,8.044218,-0.692288,0.786830,0.615190
1980-01-06T00:28:44.054016061Z,2.190695,2.932897,8.819940,-0.794154,0.809733,0.539556
1980-01-06T00:28:44.093762571Z,1.601721,3.117251,9.016264,-0.628106,0.799347,0.312655
1980-01-06T00:28:44.113655383Z,1.173159,2.646790,8.954015,-0.595749,0.647547,0.229564
1980-01-06T00:28:44.133506373Z,1.046266,2.345121,9.432856,-0.775512,0.562859,0.218912
1980-01-06T00:28:44.153365956Z,1.076194,2.687491,9.614815,-0.810399,0.634231,0.218912
1980-01-06T00:28:44.173251529Z,1.007959,2.729390,9.442432,-0.650477,0.798548,0.125168
1980-01-06T00:28:44.193095123Z,1.092953,2.383428,9.480740,-0.628639,0.758334,0.043143
1980-01-06T00:28:44.213012519Z,1.340753,2.382231,10.079289,-0.686163,0.598811,-0.006924
1980-01-06T00:28:44.252717363Z,0.654814,2.371457,9.504682,-0.427171,0.495747,-0.210390
1980-01-06T00:28:44.272578873Z,0.312443,2.075773,9.293992,-0.464988,0.464055,-0.257261
1980-01-06T00:28:44.292652154Z,0.379481,1.655591,9.327511,-0.550608,0.508264,-0.268979
1980-01-06T00:28:44.312320956Z,0.336385,1.926135,9.495105,-0.573378,0.662993,-0.327569
1980-01-06T00:28:44.332208508Z,0.338780,2.427721,9.835081,-0.401072,0.671382,-0.408529
1980-01-06T00:28:44.352132050Z,0.114922,2.229002,9.777620,-0.177633,0.406931,-0.483097
1980-01-06T00:28:44.372174133Z,-0.166397,1.322796,8.997110,-0.172173,0.238619,-0.574710
1980-01-06T00:28:44.411739706Z,-0.553061,1.113304,9.452009,-0.660463,0.417317,-0.632234
1980-01-06T00:28:44.431556529Z,-1.156399,1.637634,8.681076,-0.632234,0.604537,-0.653539
1980-01-06T00:28:44.451415644Z,-0.986411,2.043451,10.313922,-0.701343,0.555668,-0.649278
1980-01-06T00:28:44.471314394Z,-0.969652,1.569399,10.419267,-0.625310,0.414121,-0.673779
1980-01-06T00:28:44.491156894Z,-0.828394,1.066617,10.237308,-0.544483,0.241549,-0.722781
1980-01-06T00:28:44.511061894Z,-1.125275,0.894234,10.079289,-0.564856,0.124769,-0.763261
1980-01-06T00:28:44.550783977Z,-1.019930,1.097741,11.223719,-0.713993,0.128897,-0.825047
1980-01-06T00:28:44.570670435Z,-1.165976,1.375469,11.721712,-0.544083,0.030360,-0.846352
1980-01-06T00:28:44.590526112Z,-1.515530,1.213860,11.616367,-0.292548,0.015579,-0.890028
1980-01-06T00:28:44.610628873Z,-1.567005,0.803255,11.463139,-0.205995,0.015446,-0.910268
1980-01-06T00:28:44.630256790Z,-1.414973,0.709881,11.329063,-0.111720,-0.024102,-0.899615
1980-01-06T00:28:44.650129290Z,-1.541866,0.745794,11.190200,-0.039681,-0.043143,-0.907072
1980-01-06T00:28:44.670043040Z,-1.429338,0.635661,11.070489,-0.055926,-0.035154,-0.941160
1980-01-06T00:28:44.729585696Z,-2.000355,0.568623,10.447997,0.029428,0.022237,-1.017859
1980-01-06T00:28:44.749475956Z,-2.047042,0.478840,10.421062,-0.027031,0.055793,-0.995489
1980-01-06T00:28:44.789435748Z,-2.227805,0.834379,10.473735,-0.040081,0.113184,-0.914529
1980-01-06T00:28:44.809143144Z,-2.064999,0.815226,10.454581,-0.007856,0.085221,-0.912398
1980-01-06T00:28:44.868711164Z,-2.511518,0.967257,10.128969,-0.019441,-0.045540,-0.860200
1980-01-06T00:28:44.888576946Z,-2.693477,1.016339,10.090662,0.019308,-0.075634,-0.818655
1980-01-06T00:28:44.908470175Z,-2.817975,0.841562,9.788993,-0.007191,-0.068843,-0.786697
1980-01-06T00:28:44.928285539Z,-2.838326,1.156399,9.779416,-0.064715,-0.063250,-0.756870
1980-01-06T00:28:44.948207154Z,-2.928109,1.315614,10.157700,-0.053130,-0.139283,-0.749413
1980-01-06T00:28:44.968332623Z,-3.197456,1.252167,10.373178,-0.017710,-0.204397,-0.712129
1980-01-06T00:28:44.988071425Z,-3.574543,1.154005,10.401909,0.034754,-0.163518,-0.621581
1980-01-06T00:28:45.008017987Z,-3.578135,1.031901,10.435428,0.127432,-0.008922,-0.566188
1980-01-06T00:28:45.027652623Z,-3.168726,0.791284,10.076297,0.195742,0.043276,-0.493750
1980-01-06T00:28:45.047552362Z,-2.784456,0.416591,9.750686,0.162453,0.080294,-0.404268
1980-01-06T00:28:45.067409341Z,-2.172738,0.305261,9.812935,0.124902,0.131826,-0.361657
1980-01-06T00:28:45.087271737Z,-1.619677,0.150835,9.985317,0.115315,0.119842,-0.333960
1980-01-06T00:28:45.107155383Z,-1.115698,-0.106542,9.966164,0.155528,0.130228,-0.373375
1980-01-06T00:28:45.127013925Z,-0.687136,-0.162806,9.889549,0.147672,0.126367,-0.433030
1980-01-06T00:28:45.166764133Z,-0.669179,-0.033519,10.096349,0.186421,0.131960,-0.589091
1980-01-06T00:28:45.186604862Z,-0.751779,0.019154,10.158598,0.187753,0.136620,-0.635962
1980-01-06T00:28:45.206511841Z,-0.881066,0.196325,10.383653,0.179896,0.007856,-0.647680
1980-01-06T00:28:45.226352571Z,-1.085770,0.221464,10.575189,0.176567,-0.058057,-0.697748
1980-01-06T00:28:45.246294185Z,-1.319205,0.301669,10.867282,0.178565,-0.130894,-0.720118
1980-01-06T00:28:45.266092102Z,-1.557428,0.478840,11.087548,0.201468,-0.211055,-0.738228
1980-01-06T00:28:45.325737258Z,-1.762132,0.815226,11.604695,0.316250,-0.243679,-0.735032
1980-01-06T00:28:45.345593352Z,-1.742979,0.993594,11.738770,0.382430,-0.254997,-0.717988
1980-01-06T00:28:45.365489810Z,-1.752556,1.133654,11.973403,0.458330,-0.234491,-0.748880
1980-01-06T00:28:45.385333300Z,-2.118869,1.464054,12.251130,0.561128,-0.316916,-0.760598
1980-01-06T00:28:45.405219654Z,-2.604892,1.551443,12.332533,0.704405,-0.418249,-0.678573
1980-01-06T00:28:45.425060643Z,-2.875436,1.490391,12.222400,0.835433,-0.302801,-0.695617
1980-01-06T00:28:45.484672623Z,-3.142390,1.660379,12.184093,1.060869,-0.318381,-0.551807
1980-01-06T00:28:45.504559445Z,-3.342306,1.789666,11.829751,1.164200,-0.462191,-0.478303
1980-01-06T00:28:45.524417623Z,-3.624821,2.033874,11.231200,1.198155,-0.568851,-0.370712
1980-01-06T00:28:45.544294237Z,-3.824737,2.398990,10.919954,1.160605,-0.487358,-0.268446
1980-01-06T00:28:45.564164966Z,-4.048595,2.932897,10.460267,1.163135,-0.416119,-0.135288
1980-01-06T00:28:45.584038195Z,-3.967192,2.935291,10.307038,1.118127,-0.339952,-0.003196
1980-01-06T00:28:45.623749497Z,-3.945644,3.390190,9.976639,1.269927,-0.388422,0.246076
1980-01-06T00:28:45.643634133Z,-3.816358,3.472790,9.507375,1.389370,-0.331430,0.337689
1980-01-06T00:28:45.663498716Z,-3.627216,3.485958,9.052477,1.415203,-0.294279,0.419714
1980-01-06T00:28:45.683358977Z,-3.468001,3.705027,8.090008,1.259940,-0.191215,0.546480
1980-01-06T00:28:45.703239393Z,-3.315969,3.921702,7.702147,1.116263,-0.004794,0.639158
1980-01-06T00:28:45.723112779Z,-3.180697,4.305972,7.711724,0.993358,0.258193,0.751011
1980-01-06T00:28:45.782762570Z,-2.862268,4.338294,7.098808,1.104678,0.023968,0.934236
1980-01-06T00:28:45.802645904Z,-2.747346,4.265270,7.187094,0.967392,-0.013582,1.027447
1980-01-06T00:28:45.822502883Z,-2.298434,4.357447,7.091326,0.975382,0.055793,1.027447
1980-01-06T00:28:45.842336685Z,-1.933318,4.570531,6.478411,0.851945,0.063916,1.103080
1980-01-06T00:28:45.862197518Z,-1.650802,4.752491,6.296451,0.786697,0.070041,1.139299
1980-01-06T00:28:45.882053664Z,-1.431733,4.880580,6.521506,0.623845,0.135022,1.115864
1980-01-06T00:28:45.941668143Z,-1.347936,4.289212,5.875072,0.587493,0.206927,1.197889
1980-01-06T00:28:45.961579497Z,-0.908600,4.161122,5.434538,0.531433,0.196541,1.220259
1980-01-06T00:28:45.981415695Z,-0.536301,4.078523,5.171176,0.440620,0.151667,1.273522
1980-01-06T00:28:46.001342258Z,-0.246603,3.997120,4.950910,0.334626,0.199071,1.279914
1980-01-06T00:28:46.021179185Z,0.084994,4.036624,4.869507,0.221042,0.260723,1.310807
1980-01-06T00:28:46.041084341Z,0.410606,3.979163,4.888660,0.099868,0.318780,1.333177
1980-01-06T00:28:46.080783664Z,1.392228,3.806781,5.396231,-0.136886,0.558331,1.341699
1980-01-06T00:28:46.100696008Z,1.690306,4.473566,6.071396,-0.212520,0.600675,1.301219
1980-01-06T00:28:46.120507258Z,1.746570,4.774038,6.315605,-0.113184,0.481366,1.273522
1980-01-06T00:28:46.140426060Z,1.904588,4.264073,6.176741,-0.024901,0.478836,1.179779
1980-01-06T00:28:46.160280643Z,1.987187,3.538630,5.817611,-0.095208,0.474974,1.128647
1980-01-06T00:28:46.180142935Z,1.972822,3.626019,5.654805,-0.250603,0.483097,1.141430
1980-01-06T00:28:46.239753195Z,1.641225,3.439271,6.497564,-0.451006,0.878443,1.309741
1980-01-06T00:28:46.259593716Z,1.695095,3.456030,6.851906,-0.469515,1.115198,1.319329
1980-01-06T00:28:46.279475695Z,1.703475,3.420117,6.698677,-0.409594,1.281512,1.275653
1980-01-06T00:28:46.299362674Z,2.008735,2.693477,6.765715,-0.510128,1.329049,1.189367
1980-01-06T00:28:46.319199601Z,2.306813,2.404976,7.383419,-0.723048,1.134506,1.125451
1980-01-06T00:28:46.339140383Z,2.087744,3.013103,7.785645,-0.804940,0.923717,1.017859
1980-01-06T00:28:46.398713716Z,1.795651,2.692280,8.580520,-0.721716,0.453136,0.638626
1980-01-06T00:28:46.418606008Z,1.559822,3.038242,8.484752,-0.670850,0.490288,0.536360
1980-01-06T00:28:46.438471268Z,1.242591,2.747346,8.183083,-0.568052,0.540888,0.423442
1980-01-06T00:28:46.458531320Z,1.302446,2.396596,8.666711,-0.693220,0.486026,0.411724
1980-01-06T00:28:46.478192205Z,1.325191,2.747346,9.088090,-0.770718,0.482165,0.427703
1980-01-06T00:28:46.498089341Z,1.288081,2.857480,8.968380,-0.640090,0.680970,0.361657
1980-01-06T00:28:46.557692414Z,1.249773,2.434903,9.212589,-0.548744,0.705604,0.100667
1980-01-06T00:28:46.577521580Z,0.926556,2.832341,9.380183,-0.558065,0.594683,0.017577
1980-01-06T00:28:46.597422205Z,0.713472,2.737770,9.456798,-0.515188,0.407596,-0.031425
1980-01-06T00:28:46.617289341Z,0.446519,2.472013,9.437644,-0.480700,0.404534,-0.101733
1980-01-06T00:28:46.637245747Z,0.162806,2.466028,9.035418,-0.408662,0.521313,-0.134756
1980-01-06T00:28:46.657031945Z,0.112527,2.240973,8.705018,-0.388821,0.651142,-0.194411
1980-01-06T00:28:46.696765695Z,0.333991,2.489970,9.629180,-0.610263,0.209990,-0.134756
1980-01-06T00:28:46.716614601Z,0.026336,2.237381,9.289204,-0.530768,0.193745,-0.164583
1980-01-06T00:28:46.736501685Z,-0.039504,1.914164,9.395446,-0.539955,0.380832,-0.338754
1980-01-06T00:28:46.756373091Z,-0.105345,1.923741,9.850345,-0.645683,0.322375,-0.353667
1980-01-06T00:28:46.776251372Z,-0.299275,2.128445,10.080188,-0.666722,0.362855,-0.363255
1980-01-06T00:28:46.796171476Z,-0.550666,1.975216,9.926959,-0.564323,0.519449,-0.410126
1980-01-06T00:28:46.816308820Z,-0.567426,1.793257,10.008362,-0.501606,0.634764,-0.478303
1980-01-06T00:28:46.836065330Z,-0.272939,1.555034,10.381857,-0.578704,0.544217,-0.490021
1980-01-06T00:28:46.855738924Z,-0.341174,1.617283,10.688315,-0.607866,0.455267,-0.506000
1980-01-06T00:28:46.875609341Z,-0.676362,1.584962,10.740988,-0.506932,0.512924,-0.600809
1980-01-06T00:28:46.895469184Z,-0.995988,1.570596,11.904570,-0.521846,0.505334,-0.693487
1980-01-06T00:28:46.915349653Z,-1.564611,1.358709,11.128848,-0.168578,0.299339,-0.698813
1980-01-06T00:28:46.935187257Z,-1.459266,0.962469,10.798449,-0.345678,0.335691,-0.679638
1980-01-06T00:28:46.955092205Z,-1.513135,0.984017,10.645219,-0.293347,0.469781,-0.779773
1980-01-06T00:28:46.975038716Z,-1.526304,1.021127,10.353127,-0.283760,0.426638,-0.776577
1980-01-06T00:28:47.014702257Z,-1.574188,1.018733,10.037092,-0.273107,0.256595,-0.738228
1980-01-06T00:28:47.034575070Z,-1.666364,0.851139,10.367492,-0.317449,0.188285,-0.697748
1980-01-06T00:28:47.054426841Z,-1.686715,0.666785,10.554239,-0.319712,0.169111,-0.691356
1980-01-06T00:28:47.074287778Z,-1.789666,0.523133,10.673950,-0.254465,0.229564,-0.760598
1980-01-06T00:28:47.094188403Z,-1.991976,0.803255,10.841544,-0.181095,0.183492,-0.795752
1980-01-06T00:28:47.114018195Z,-2.025495,0.581791,10.640430,-0.123571,0.143278,-0.861798
1980-01-06T00:28:47.153810434Z,-2.201468,0.468066,10.496778,-0.131161,-0.136886,-0.990695
1980-01-06T00:28:47.173628143Z,-2.397793,0.561440,10.137649,-0.088550,-0.249405,-0.974716
1980-01-06T00:28:47.193518299Z,-2.576161,0.664391,9.926959,-0.007856,-0.196408,-0.945954
1980-01-06T00:28:47.213408611Z,-2.564190,0.602142,9.831191,0.016645,-0.072305,-0.913996
1980-01-06T00:28:47.233251111Z,-2.437297,0.585382,9.725846,0.017044,0.040746,-0.928910
1980-01-06T00:28:47.253134653Z,-2.351106,0.671574,9.572617,0.019841,0.048736,-0.922518
1980-01-06T00:28:47.273190486Z,-2.498349,0.821211,9.735423,-0.005726,-0.036352,-0.882038
1980-01-06T00:28:47.312718559Z,-3.038242,0.635661,10.104130,0.070307,-0.094143,-0.871386
1980-01-06T00:28:47.332616111Z,-3.065775,0.569820,10.003573,0.072438,-0.106926,-0.859668
1980-01-06T00:28:47.352556163Z,-3.111265,0.695516,9.917382,0.060853,-0.139017,-0.818122
1980-01-06T00:28:47.372399341Z,-3.169923,0.796072,9.835081,0.094808,-0.094010,-0.785632
1980-01-06T00:28:47.392218820Z,-3.415329,0.699107,9.701006,0.107458,0.013848,-0.725977
1980-01-06T00:28:47.412070018Z,-3.469198,0.820014,9.581296,0.078696,0.134623,-0.667388
1980-01-06T00:28:47.452016007Z,-3.550601,0.796072,9.873388,0.019175,0.029961,-0.504402
1980-01-06T00:28:47.491842466Z,-3.550601,0.861913,9.964368,0.078297,-0.040613,-0.380832
1980-01-06T00:28:47.511636163Z,-3.410540,0.831985,9.897330,0.073636,-0.065247,-0.303067
1980-01-06T00:28:47.531371111Z,-3.142390,0.779313,9.758467,0.068576,-0.042744,-0.229564
1980-01-06T00:28:47.551442934Z,-2.930503,0.691924,9.581296,0.082957,-0.000399,-0.163518
1980-01-06T00:28:47.571040538Z,-2.711433,0.465672,9.432856,0.080827,0.080694,-0.125168
1980-01-06T00:28:47.630696059Z,-2.425326,0.260968,9.600450,0.029961,-0.031292,-0.092145
1980-01-06T00:28:47.650556997Z,-2.349909,0.390255,9.581296,0.039148,-0.021971,-0.074036
1980-01-06T00:28:47.670395122Z,-2.280477,0.326809,9.514258,0.073104,0.045540,-0.081493
1980-01-06T00:28:47.690287778Z,-2.114080,0.306458,9.404125,0.066179,0.081226,-0.081493
1980-01-06T00:28:47.710134809Z,-1.988384,0.167594,9.394548,0.046605,0.065381,-0.097472
1980-01-06T00:28:47.730019132Z,-1.850718,0.084994,9.471163,0.015979,0.011984,-0.115581
1980-01-06T00:28:47.769743247Z,-1.983596,0.191536,9.547777,0.037151,0.025300,-0.160322
1980-01-06T00:28:47.789621059Z,-2.076970,0.193930,9.571719,0.041812,0.022770,-0.163518
1980-01-06T00:28:47.809483663Z,-1.924938,0.047884,9.667487,0.036618,0.054328,-0.180562
1980-01-06T00:28:47.829358872Z,-1.810017,0.077812,9.787197,0.053130,0.074169,-0.222107
1980-01-06T00:28:47.849252361Z,-1.654393,0.010774,9.897330,0.060187,0.047404,-0.253000
1980-01-06T00:28:47.869103507Z,-1.549049,-0.089783,10.175058,0.085354,0.039282,-0.270044
1980-01-06T00:28:47.928704184Z,-1.692701,0.008380,10.395325,0.226369,-0.016112,-0.415985
1980-01-06T00:28:47.948629497Z,-1.873463,0.069432,10.251673,0.301736,0.023169,-0.493750
1980-01-06T00:28:47.968458142Z,-1.929727,-0.050278,9.830293,0.309459,0.002530,-0.544882
1980-01-06T00:28:47.988346111Z,-1.945289,0.050278,9.519047,0.270177,-0.037551,-0.555535
1980-01-06T00:28:48.008194913Z,-2.013524,0.258574,9.452009,0.253666,-0.086286,-0.559796
1980-01-06T00:28:48.028091580Z,-2.313996,0.385466,9.380183,0.260057,-0.136620,-0.567253
1980-01-06T00:28:48.087684288Z,-3.388993,0.660800,8.503905,0.156993,-0.282162,-0.549143
1980-01-06T00:28:48.107545017Z,-3.894169,0.797269,8.160337,0.036485,-0.330365,-0.476040
1980-01-06T00:28:48.127422674Z,-4.229357,1.021127,8.074146,-0.053396,-0.390286,-0.364187
1980-01-06T00:28:48.147303090Z,-4.371812,1.206678,7.911340,-0.143677,-0.347143,-0.233160
1980-01-06T00:28:48.167166163Z,-4.277241,1.247379,7.906552,-0.192280,-0.224504,-0.107458
1980-01-06T00:28:48.187042205Z,-4.034230,1.212663,8.021474,-0.236355,-0.093344,0.001198
1980-01-06T00:28:48.226766267Z,-3.557784,1.180341,8.955213,-0.312788,-0.004927,0.171641
1980-01-06T00:28:48.246644184Z,-3.477578,1.350330,9.347861,-0.249804,-0.005060,0.223838
1980-01-06T00:28:48.266566007Z,-3.536236,1.337162,9.371803,-0.164317,0.012517,0.267514
1980-01-06T00:28:48.286408976Z,-3.563769,1.211466,9.295189,-0.119975,0.036086,0.310125
1980-01-06T00:28:48.306453246Z,-3.666720,1.043872,9.223363,-0.139949,0.014381,0.370845
1980-01-06T00:28:48.326113142Z,-3.767276,1.086968,9.410110,-0.188552,-0.036352,0.483763
1980-01-06T00:28:48.346031736Z,-3.715801,1.095347,9.687838,-0.243945,-0.033955,0.609464
1980-01-06T00:28:48.385767778Z,-3.815161,1.564611,10.353426,-0.166181,-0.085088,0.734100
1980-01-06T00:28:48.405594080Z,-3.877410,1.376666,10.425252,-0.143677,-0.164051,0.827843
1980-01-06T00:28:48.425542778Z,-3.843891,1.400608,10.626365,-0.161387,-0.196807,0.949283
1980-01-06T00:28:48.445351111Z,-3.728969,1.373075,10.837054,-0.142080,-0.171641,1.092028
1980-01-06T00:28:48.465201371Z,-3.531447,1.411382,11.076475,-0.074435,-0.071106,1.179380
1980-01-06T00:28:48.485095955Z,-3.145981,1.267730,11.306318,-0.014248,-0.072571,1.291233
1980-01-06T00:28:48.544913767Z,-2.510320,0.937330,11.766005,0.078829,-0.324639,1.462740
1980-01-06T00:28:48.564535694Z,-2.426523,0.831985,12.000637,0.062851,-0.518517,1.526656
1980-01-06T00:28:48.584437413Z,-2.387019,0.647632,12.508207,0.075501,-0.658333,1.609746
1980-01-06T00:28:48.604339080Z,-2.202666,0.378284,13.092393,0.124902,-0.635563,1.655553
1980-01-06T00:28:48.624174600Z,-1.657985,0.241814,13.465888,0.249937,-0.564457,1.721599
1980-01-06T00:28:48.644051163Z,-1.204283,0.095768,13.556868,0.386158,-0.431831,1.746100
1980-01-06T00:28:48.683999809Z,-0.090980,-0.593762,13.044509,0.604271,-0.418782,1.634247
1980-01-06T00:28:48.703707257Z,0.374693,-0.821211,12.872127,0.550209,-0.478436,1.513873
1980-01-06T00:28:48.723541736Z,0.547075,-0.792481,12.809876,0.614124,-0.689492,1.383910
1980-01-06T00:28:48.743388455Z,0.695516,-0.877475,13.106758,0.626774,-1.009337,1.251818
1980-01-06T00:28:48.763290017Z,0.842759,-0.893037,12.680590,0.694019,-1.208408,1.059005
1980-01-06T00:28:48.783123819Z,1.291672,-1.052252,12.848185,0.748081,-1.365668,0.889628
1980-01-06T00:28:48.803033975Z,1.657985,-1.040281,12.000637,0.886299,-1.469132,0.744752
1980-01-06T00:28:48.842736840Z,2.653973,-0.810437,11.066898,0.973385,-1.259674,0.436891
1980-01-06T00:28:48.862640746Z,3.014300,-0.512359,10.516232,1.115730,-1.100684,0.218512
1980-01-06T00:28:48.882502621Z,3.167529,-0.618901,9.855432,1.267264,-1.082308,-0.012650
1980-01-06T00:28:48.902334705Z,3.537433,-0.899023,9.074923,1.312937,-1.181510,-0.232094
1980-01-06T00:28:48.922234809Z,3.712210,-0.976834,8.552986,1.283509,-1.347958,-0.444082
1980-01-06T00:28:48.942112934Z,3.818752,-0.995988,7.935282,1.231045,-1.479385,-0.643286
1980-01-06T00:28:48.962002517Z,3.836708,-0.887052,7.341520,1.227849,-1.495364,-0.865926
1980-01-06T00:28:49.001743350Z,3.690662,-0.665588,6.072593,1.195093,-1.516136,-1.216398
1980-01-06T00:28:49.021632309Z,3.618836,-0.414197,5.301661,1.178048,-1.457147,-1.379383
1980-01-06T00:28:49.041467986Z,3.567361,-0.386664,4.501997,1.155545,-1.369263,-1.509345
1980-01-06T00:28:49.061346788Z,3.432088,-0.106542,3.793313,1.068859,-1.287371,-1.631851
1980-01-06T00:28:49.081260329Z,3.051410,0.464475,3.228282,0.871252,-1.269794,-1.709615
1980-01-06T00:28:49.101095954Z,2.686294,1.112107,2.720711,0.652607,-1.156477,-1.801227
1980-01-06T00:28:49.121019340Z,2.231396,1.637634,2.375946,0.459262,-1.026648,-1.851295
1980-01-06T00:28:49.160872986Z,1.374272,2.840720,2.490868,-0.095607,-0.721849,-1.832120
1980-01-06T00:28:49.180544184Z,0.973243,3.350685,3.027169,-0.256729,-0.553005,-1.854491
1980-01-06T00:28:49.200396007Z,0.600945,3.654749,3.252224,-0.353268,-0.460726,-1.870470
1980-01-06T00:28:49.220303819Z,0.254982,4.192247,3.735852,-0.519449,-0.477904,-1.809750
1980-01-06T00:28:49.240135069Z,-0.178368,4.477157,3.817255,-0.549277,-0.428902,-1.870470
1980-01-06T00:28:49.260019236Z,-0.538695,4.504691,4.056675,-0.523444,-0.549543,-1.877926
1980-01-06T00:28:49.319649913Z,-2.498349,5.577293,4.808455,-1.015196,-0.336091,-1.591371
1980-01-06T00:28:49.339510069Z,-2.973598,5.582081,5.172373,-1.006541,-0.135288,-1.483779
1980-01-06T00:28:49.359599027Z,-3.189077,5.505467,5.694309,-1.085637,0.002131,-1.284575
1980-01-06T00:28:49.379423767Z,-3.198653,5.853823,5.919364,-1.212270,0.078963,-1.131177
1980-01-06T00:28:49.399103767Z,-3.028665,6.076484,6.575376,-1.396827,0.153664,-0.947951
1980-01-06T00:28:49.419004288Z,-3.075352,5.828684,7.427711,-1.454351,0.190948,-0.765791
1980-01-06T00:28:49.458716059Z,-2.929306,5.219360,8.232163,-1.343564,0.342749,-0.543151
1980-01-06T00:28:49.478594965Z,-2.743755,5.261258,8.725368,-1.436774,0.379367,-0.435560
1980-01-06T00:28:49.498431683Z,-2.662352,5.592855,9.223363,-1.476855,0.359926,-0.257661
1980-01-06T00:28:49.518515121Z,-3.047819,4.781221,7.686285,-1.215732,0.499342,-0.161787
1980-01-06T00:28:49.538197881Z,-2.312799,4.059369,9.587281,-1.243562,0.625709,-0.088284
1980-01-06T00:28:49.558089131Z,-2.297236,3.645172,9.223363,-1.412939,0.737029,0.031026
1980-01-06T00:28:49.617700486Z,-2.495955,3.551798,11.004649,-1.340368,0.555934,0.345279
1980-01-06T00:28:49.637595486Z,-2.134431,3.199851,11.224916,-1.156344,0.752209,0.388954
1980-01-06T00:28:49.657428194Z,-2.117671,2.849100,10.798747,-1.016794,0.848349,0.439022
1980-01-06T00:28:49.677301996Z,-1.911770,2.244564,11.014226,-1.115864,0.795619,0.511460
1980-01-06T00:28:49.697152621Z,-1.334767,2.504335,11.766005,-1.206011,0.594683,0.649944
1980-01-06T00:28:49.717037308Z,-1.186327,2.700660,12.101193,-1.175385,0.485760,0.711729
1980-01-06T00:28:49.756784808Z,-0.515950,0.955287,12.354979,-0.758201,0.688560,0.800146
1980-01-06T00:28:49.776667204Z,-0.559046,1.048660,11.665448,-0.531567,0.861399,0.670184
1980-01-06T00:28:49.796534444Z,-0.739808,1.582567,11.641506,-0.381897,0.598678,0.598811
1980-01-06T00:28:49.816374808Z,-1.171962,0.667982,10.722133,-0.599477,0.310125,0.609464
1980-01-06T00:28:49.836263975Z,-1.614889,0.779313,11.162666,-0.700278,0.182826,0.559397
1980-01-06T00:28:49.856130433Z,-2.175132,1.076194,11.430817,-0.636761,0.004527,0.611594
1980-01-06T00:28:49.895770590Z,-1.938106,0.017957,11.713332,-0.502405,0.250337,0.821451
1980-01-06T00:28:49.915735277Z,-1.425747,0.166397,12.062886,-0.491220,0.504269,0.837430
1980-01-06T00:28:49.935634079Z,-1.313220,0.478840,12.168231,-0.368448,0.467384,0.802277
1980-01-06T00:28:49.955450173Z,-1.606509,0.247800,12.101193,-0.216914,0.222640,0.758601
1980-01-06T00:28:49.975328558Z,-1.683124,-0.067038,11.904869,-0.126101,0.033556,0.777776
1980-01-06T00:28:49.995216475Z,-1.758541,0.165200,11.411663,-0.071639,0.066845,0.774580
1980-01-06T00:28:50.015128506Z,-1.886631,0.399832,10.904093,0.009321,0.134889,0.757536
1980-01-06T00:28:50.035196527Z,-1.774103,0.131681,10.899304,0.015180,0.150868,0.824647
1980-01-06T00:28:50.055020642Z,-1.206678,-0.058658,10.684424,-0.027297,0.248872,0.865527
1980-01-06T00:28:50.074668350Z,-0.641646,0.191536,10.770616,0.013582,0.274439,0.814394
1980-01-06T00:28:50.094718506Z,-0.567426,0.227449,10.531196,0.115048,0.206128,0.731303
1980-01-06T00:28:50.114613402Z,-0.636858,0.102951,10.258257,0.125568,0.133025,0.639691
1980-01-06T00:28:50.134303610Z,-0.763750,0.290895,10.229526,0.086153,0.007457,0.589623
1980-01-06T00:28:50.154177933Z,-1.097741,0.377087,9.961375,0.067112,-0.083889,0.578971
1980-01-06T00:28:50.174058454Z,-1.363498,0.517148,9.985317,0.058456,-0.029961,0.555535
1980-01-06T00:28:50.213786527Z,-1.423353,0.793678,10.263045,0.087751,0.018243,0.539556
1980-01-06T00:28:50.233667412Z,-1.635240,0.888249,10.358813,0.098404,0.036485,0.536360
1980-01-06T00:28:50.253527881Z,-1.774103,1.124078,10.488100,0.123437,0.046206,0.520381
1980-01-06T00:28:50.273438402Z,-1.926135,1.283292,10.540772,0.144343,0.010786,0.498011
1980-01-06T00:28:50.293254704Z,-2.105700,1.441309,10.344448,0.149270,-0.074036,0.522512
1980-01-06T00:28:50.313371319Z,-2.184709,1.696292,10.373178,0.142080,-0.122106,0.571514
1980-01-06T00:28:50.372763454Z,-2.061408,1.939303,11.062708,0.177233,-0.168844,0.734499
1980-01-06T00:28:50.392619131Z,-2.014721,1.709460,11.101015,0.199071,-0.210523,0.752609
1980-01-06T00:28:50.412502829Z,-1.877054,1.729811,11.340436,0.156327,-0.298673,0.800546
1980-01-06T00:28:50.432380277Z,-1.787272,1.764527,11.627740,0.170575,-0.361124,0.849548
1980-01-06T00:28:50.452237777Z,-1.687912,1.964442,12.235868,0.214251,-0.404534,0.934769
1980-01-06T00:28:50.472105069Z,-1.635240,1.910573,12.144887,0.330897,-0.334093,0.986967
1980-01-06T00:28:50.531719912Z,-0.899023,0.810437,11.426627,0.410260,0.051399,1.064731
1980-01-06T00:28:50.551556006Z,-0.505177,0.610521,11.733085,0.289619,-0.002397,1.066861
1980-01-06T00:28:50.571467412Z,-0.357933,0.891840,12.618939,0.107592,-0.346743,1.122255
1980-01-06T00:28:50.591289391Z,-0.451307,0.982820,12.863148,0.177766,-0.691090,1.116929
1980-01-06T00:28:50.611211162Z,-0.223858,0.882263,13.179183,0.374840,-0.913064,1.005076
1980-01-06T00:28:50.631067152Z,-0.084994,0.487220,12.427403,0.683100,-1.110138,0.880440
1980-01-06T00:28:50.670801214Z,0.579397,0.258574,10.856807,0.573644,-1.273256,0.697215
1980-01-06T00:28:50.690662516Z,1.059434,0.295684,10.511443,0.653805,-1.310274,0.629704
1980-01-06T00:28:50.710516891Z,1.505953,0.132878,10.224139,0.759000,-1.197356,0.512525
1980-01-06T00:28:50.730390068Z,2.043451,0.050278,10.042180,0.909069,-1.030776,0.354866
1980-01-06T00:28:50.750260746Z,2.488773,-0.100556,9.534609,1.048219,-0.935568,0.187620
1980-01-06T00:28:50.770140329Z,2.716222,-0.108936,9.161114,1.205878,-0.943158,-0.025433
1980-01-06T00:28:50.790013558Z,3.252523,-0.043096,8.596082,1.105344,-1.013199,-0.223572
1980-01-06T00:28:50.829764079Z,3.302801,0.411803,6.359898,1.264202,-1.244361,-0.697614
1980-01-06T00:28:50.849633558Z,3.472790,0.831985,6.666355,1.179114,-1.333843,-0.817989
1980-01-06T00:28:50.869511006Z,2.981978,1.150414,5.244200,1.086968,-1.232110,-1.010802
1980-01-06T00:28:50.889359183Z,3.050213,1.438915,5.330391,0.948351,-1.035569,-1.158874
1980-01-06T00:28:50.909231475Z,2.837129,1.640028,4.794090,0.878576,-0.962599,-1.222789
1980-01-06T00:28:50.929335693Z,2.652776,1.775301,4.602553,0.762862,-0.876712,-1.270726
1980-01-06T00:28:50.988719704Z,2.609680,2.665944,4.626495,0.346344,-0.619451,-1.445429
1980-01-06T00:28:51.008592308Z,2.577358,3.113659,4.703110,0.269645,-0.600276,-1.528520
1980-01-06T00:28:51.028462047Z,2.343924,3.497929,4.607941,0.153265,-0.649944,-1.597363
1980-01-06T00:28:51.048342412Z,2.135628,3.512294,4.488230,0.053263,-0.692688,-1.675127
1980-01-06T00:28:51.068189860Z,1.953669,3.886986,4.483442,-0.116913,-0.720917,-1.723064
1980-01-06T00:28:51.088075433Z,1.442507,4.150349,4.449923,-0.242614,-0.755272,-1.757152
1980-01-06T00:28:51.147678558Z,0.122104,4.940435,4.354155,-0.518916,-0.596414,-1.757152
1980-01-06T00:28:51.167546006Z,-0.269348,4.740520,4.378097,-0.626109,-0.593618,-1.723064
1980-01-06T00:28:51.187391318Z,-0.641646,4.677073,4.780323,-0.804407,-0.529170,-1.636777
1980-01-06T00:28:51.207587047Z,-1.054646,4.893748,5.134665,-0.917325,-0.422510,-1.587775
1980-01-06T00:28:51.227166318Z,-1.429338,4.558560,5.536891,-1.006674,-0.433296,-1.530251
1980-01-06T00:28:51.247086735Z,-1.895011,4.625597,6.197690,-1.181777,-0.461525,-1.412007
1980-01-06T00:28:51.286771995Z,-2.297236,4.521450,6.978200,-1.189633,-0.313587,-1.104146
1980-01-06T00:28:51.306809495Z,-1.842338,4.426879,7.160160,-1.194427,-0.024368,-0.966727
1980-01-06T00:28:51.326534131Z,-1.487996,4.915296,7.404368,-1.245293,0.214651,-0.849548
1980-01-06T00:28:51.346393818Z,-1.447295,4.972757,8.122628,-1.236372,0.257527,-0.778175
1980-01-06T00:28:51.366264131Z,-1.648408,4.520253,8.395568,-1.205479,0.180429,-0.695084
1980-01-06T00:28:51.386121110Z,-1.770512,3.913323,8.826524,-1.131310,0.233426,-0.667388
1980-01-06T00:28:51.445724131Z,-2.057816,4.059369,9.956587,-1.434244,0.160988,-0.273240
1980-01-06T00:28:51.465615954Z,-2.434903,4.060566,10.181642,-1.281246,0.194411,-0.165648
1980-01-06T00:28:51.485683141Z,-1.989582,3.284845,10.152911,-1.084305,0.303334,-0.071905
1980-01-06T00:28:51.505363297Z,-1.679533,3.047819,10.650906,-1.131976,0.385892,0.074036
1980-01-06T00:28:51.525239599Z,-1.793257,3.074155,10.454581,-1.172323,0.448742,0.166714
1980-01-06T00:28:51.545293610Z,-1.816002,2.902970,10.143334,-0.957805,0.472444,0.137952
1980-01-06T00:28:51.604683037Z,-1.480814,2.536657,10.947786,-0.905075,0.465387,0.440486
1980-01-06T00:28:51.624568297Z,-1.552640,1.854309,11.120169,-0.732235,0.529702,0.444748
1980-01-06T00:28:51.644414651Z,-1.204283,1.580173,11.101015,-0.760598,0.527439,0.492684
1980-01-06T00:28:51.664326787Z,-1.070208,1.796848,11.101015,-0.767522,0.451539,0.512924
1980-01-06T00:28:51.684178453Z,-1.279701,1.832761,10.837653,-0.621981,0.323973,0.508663
1980-01-06T00:28:51.704029235Z,-1.461660,1.553837,10.722732,-0.660597,0.283893,0.613059
1980-01-06T00:28:51.743760120Z,-0.987608,1.187524,11.311706,-0.615722,0.502804,0.601341
1980-01-06T00:28:51.763645120Z,-1.209072,1.216254,11.311706,-0.454734,0.522645,0.554470
1980-01-06T00:28:51.783513037Z,-1.206678,0.535104,11.522395,-0.360459,0.463922,0.542752
1980-01-06T00:28:51.803374651Z,-1.088165,0.293290,11.426627,-0.417716,0.453403,0.560861
1980-01-06T00:28:51.823284756Z,-1.280898,0.794875,11.426627,-0.439155,0.399074,0.517185
1980-01-06T00:28:51.843118610Z,-1.691504,1.003170,11.503242,-0.366717,0.202533,0.567253
1980-01-06T00:28:51.863054339Z,-1.905785,0.691924,11.527184,-0.247940,0.197606,0.566188
1980-01-06T00:28:51.902785433Z,-2.056619,0.608127,11.206360,-0.214651,0.205063,0.657800
1980-01-06T00:28:51.922608558Z,-2.144008,0.735020,10.947786,-0.229697,0.197074,0.706802
1980-01-06T00:28:51.942493870Z,-2.033874,0.723049,10.842442,-0.247008,0.129563,0.759000
1980-01-06T00:28:51.962389964Z,-2.043451,0.626084,10.933421,-0.262854,0.022637,0.827177
1980-01-06T00:28:51.982200537Z,-2.035071,0.726640,11.105803,-0.242880,0.003995,0.900680
1980-01-06T00:28:52.002098662Z,-1.885434,0.593762,11.019612,-0.138351,0.070041,0.913463
1980-01-06T00:28:52.061703974Z,-2.015918,0.633266,11.101015,-0.033822,0.035553,0.924116
1980-01-06T00:28:52.081581891Z,-2.211045,0.606930,11.005247,-0.038616,-0.081359,0.972053
1980-01-06T00:28:52.101499026Z,-2.124854,0.723049,11.086650,-0.052597,-0.067644,1.005076
1980-01-06T00:28:52.121322932Z,-2.063802,0.942118,11.086650,-0.011718,-0.031692,1.015729
1980-01-06T00:28:52.141178974Z,-2.303222,1.102530,11.225514,0.058723,-0.097338,1.075384
1980-01-06T00:28:52.161049964Z,-2.096124,0.827197,11.723508,0.061253,-0.053796,1.083906
1980-01-06T00:28:52.220656474Z,-0.590171,0.735020,14.625280,0.015180,-0.350472,1.182975
1980-01-06T00:28:52.240515485Z,-0.361524,0.397437,14.156016,0.356597,-0.336091,1.040230
1980-01-06T00:28:52.260440224Z,0.284910,-0.059855,15.075390,0.670317,-0.436359,0.943291
1980-01-06T00:28:52.280278297Z,0.440533,-0.333991,14.864700,0.633166,-0.541420,0.934769
1980-01-06T00:28:52.300162985Z,0.555455,-0.547075,14.141651,0.902944,-0.616521,0.797350
1980-01-06T00:28:52.320224130Z,0.943315,-1.037886,13.370719,1.204147,-0.777642,0.655670
1980-01-06T00:28:52.359738557Z,1.204283,-1.285686,11.685201,1.393498,-0.868722,0.455400
1980-01-06T00:28:52.379603453Z,1.716643,-1.533486,10.689213,1.612676,-0.818522,0.267914
1980-01-06T00:28:52.399503870Z,2.205060,-1.788469,9.180865,1.538507,-0.801478,0.107059
1980-01-06T00:28:52.419387203Z,2.791639,-1.626860,8.299800,1.667004,-0.833302,-0.113451
1980-01-06T00:28:52.439229912Z,3.205836,-1.522712,6.896797,1.583914,-0.842357,-0.352070
1980-01-06T00:28:52.459116162Z,3.489549,-1.318008,6.202479,1.256478,-0.927445,-0.518251
1980-01-06T00:28:52.538556005Z,3.379416,0.050278,4.431667,0.843289,-0.447011,-1.348624
1980-01-06T00:28:52.558480797Z,2.592921,0.046687,3.397372,0.770052,-0.392816,-1.523327
1980-01-06T00:28:52.578332984Z,1.772906,0.378284,2.310405,0.577639,-0.456465,-1.737445
1980-01-06T00:28:52.598429495Z,0.294487,1.055843,1.285686,0.275104,-0.709732,-1.810948
1980-01-06T00:28:52.618099964Z,-1.350330,2.148796,0.486023,-0.150069,-0.795619,-1.735314
1980-01-06T00:28:52.677675953Z,-2.393005,4.077325,2.850596,-0.723847,0.558198,-1.470596
1980-01-06T00:28:52.697545536Z,-2.711433,3.610456,3.439570,-0.831039,0.596015,-1.447160
1980-01-06T00:28:52.717441266Z,-3.495534,3.208230,4.478653,-0.994157,0.461259,-1.396028
1980-01-06T00:28:52.737313297Z,-4.811148,3.148375,5.670966,-1.236904,0.272841,-1.161670
1980-01-06T00:28:52.757157151Z,-5.784391,3.205836,6.892009,-1.426521,0.357396,-0.940095
1980-01-06T00:28:52.777248349Z,-6.029797,3.250129,8.189666,-1.616005,0.467251,-0.703607
1980-01-06T00:28:52.816802047Z,-5.388151,4.170700,10.684424,-1.628788,0.469648,-0.270044
1980-01-06T00:28:52.836642776Z,-5.421670,4.645948,11.953351,-1.433578,0.361923,-0.092145
1980-01-06T00:28:52.856524651Z,-5.718551,4.465186,12.915820,-1.287238,0.304532,0.175236
1980-01-06T00:28:52.876367151Z,-5.838261,3.967192,13.930962,-1.199886,0.327569,0.454335
1980-01-06T00:28:52.896280693Z,-5.682638,3.842694,15.108909,-1.047021,0.361923,0.741956
1980-01-06T00:28:52.916123036Z,-5.188235,3.707421,15.870265,-0.811198,0.338354,0.976314
1980-01-06T00:28:52.936022776Z,-4.255693,3.319561,16.162357,-0.534230,0.279099,1.148887
1980-01-06T00:28:52.975731682Z,-2.203863,2.545036,17.870022,-0.145408,0.129296,1.366200
1980-01-06T00:28:52.995631786Z,-1.741782,1.517924,15.552435,0.018908,0.040480,1.496163
1980-01-06T00:28:53.015496526Z,-1.017536,1.237802,15.490186,0.220510,0.113184,1.499358
1980-01-06T00:28:53.035328922Z,-0.248997,1.325191,15.059230,0.487758,0.047937,1.426921
1980-01-06T00:28:53.055219338Z,0.414197,1.203086,14.427160,0.682434,-0.230230,1.445030
1980-01-06T00:28:53.075069807Z,1.453280,1.391031,14.139856,0.672847,-0.392949,1.376853
1980-01-06T00:28:53.134662724Z,1.753753,-0.259771,12.530952,1.128247,-0.651808,0.727042
1980-01-06T00:28:53.154572203Z,1.482011,-0.882263,12.004228,1.051948,-0.743154,0.588558
1980-01-06T00:28:53.174473453Z,1.294066,-0.951695,11.472715,1.202549,-0.808269,0.476705
1980-01-06T00:28:53.194333870Z,1.641225,-0.889446,11.147104,1.344096,-0.763128,0.336091
1980-01-06T00:28:53.214241422Z,1.880645,-0.519542,9.586084,1.470064,-0.651142,0.176301
1980-01-06T00:28:53.234033192Z,2.272097,-0.593762,8.388984,1.419464,-0.627573,0.041013
1980-01-06T00:28:53.273783349Z,2.896984,-0.398635,6.851906,1.253682,-0.592686,-0.280697
1980-01-06T00:28:53.293680901Z,3.175909,-0.260968,6.033089,1.068459,-0.553271,-0.437291
1980-01-06T00:28:53.313546995Z,3.383007,-0.001197,5.233426,0.892824,-0.501340,-0.625842
1980-01-06T00:28:53.333594547Z,3.360262,0.554258,4.414608,0.754340,-0.488423,-0.814394
1980-01-06T00:28:53.353282151Z,3.080141,0.915782,3.557484,0.623312,-0.454069,-0.985901
1980-01-06T00:28:53.373123192Z,2.841918,1.163582,2.891896,0.465920,-0.427171,-1.173388
1980-01-06T00:28:53.393036005Z,2.430115,1.801637,2.465729,0.193478,-0.474708,-1.309741
1980-01-06T00:28:53.432741369Z,0.922965,3.278859,2.609380,-0.281496,-0.508397,-1.497228
1980-01-06T00:28:53.452613401Z,0.037110,3.487155,2.978088,-0.496013,-0.433429,-1.511076
1980-01-06T00:28:53.472687515Z,-0.794875,3.623624,3.567061,-0.670051,-0.319446,-1.553687
1980-01-06T00:28:53.492370484Z,-2.042254,3.889381,4.194342,-0.908670,-0.289485,-1.490836
1980-01-06T00:28:53.512238922Z,-3.318364,3.988740,5.262156,-1.065264,-0.182826,-1.420529
1980-01-06T00:28:53.532066682Z,-4.365827,3.713407,6.066608,-1.146889,-0.138751,-1.320394
1980-01-06T00:28:53.591686734Z,-5.391742,4.284424,8.360253,-1.388970,0.038216,-0.700411
1980-01-06T00:28:53.611585380Z,-4.845864,4.393360,8.676288,-1.373125,0.158325,-0.507598
1980-01-06T00:28:53.631420901Z,-4.642357,4.430470,9.327511,-1.518134,0.205596,-0.212520
1980-01-06T00:28:53.651292046Z,-4.830302,4.292804,9.906907,-1.452354,0.346078,-0.036752
1980-01-06T00:28:53.671155171Z,-4.320337,3.890578,11.089643,-1.488173,0.394414,0.219977
1980-01-06T00:28:53.691037724Z,-4.086902,3.628413,11.941978,-1.316533,0.508930,0.366983
1980-01-06T00:28:53.711104390Z,-3.780444,3.716998,12.583625,-1.100284,0.503470,0.423442
1980-01-06T00:28:53.730768296Z,-3.882198,3.477578,12.818256,-1.004410,0.209724,0.559796
1980-01-06T00:28:53.750707307Z,-3.949236,3.305195,13.857340,-0.927845,-0.005326,0.748348
1980-01-06T00:28:53.770528140Z,-3.873818,2.753332,13.301886,-0.954609,0.069508,1.037034
1980-01-06T00:28:53.790400588Z,-3.209427,2.673126,14.063242,-0.733168,0.207860,1.185106
1980-01-06T00:28:53.810276682Z,-2.512715,1.751359,14.159010,-0.485760,0.219045,1.324655
1980-01-06T00:28:53.830148609Z,-1.677138,1.205481,14.044088,-0.357130,0.266582,1.442899
1980-01-06T00:28:53.850024130Z,-0.855927,0.987608,14.024934,-0.202533,0.257527,1.478053
1980-01-06T00:28:53.889761005Z,0.604536,0.278924,14.331392,-0.004661,0.111720,1.452487
1980-01-06T00:28:53.909638661Z,0.967257,0.452504,14.771925,0.202666,0.026765,1.335308
1980-01-06T00:28:53.929487307Z,0.884658,0.386664,14.676157,0.468050,-0.094942,1.298024
1980-01-06T00:28:53.949394911Z,1.022324,0.082600,14.216471,0.652740,0.016112,1.152082
1980-01-06T00:28:53.969232411Z,1.188721,0.015562,14.283508,0.776843,0.156461,0.934769
1980-01-06T00:28:53.989146421Z,1.379060,0.114922,14.226048,0.897884,-0.085887,0.857005
1980-01-06T00:28:54.048706005Z,1.725022,-0.316035,11.539753,1.212803,-0.415053,0.552339
1980-01-06T00:28:54.068586317Z,2.134431,-0.381875,10.807127,1.418665,-0.470447,0.485228
1980-01-06T00:28:54.088436630Z,2.637213,-0.392649,10.285192,1.373657,-0.540488,0.386158
1980-01-06T00:28:54.108351786Z,2.834735,-0.229843,9.662699,1.335175,-0.731437,0.246609
1980-01-06T00:28:54.128186057Z,2.947262,-0.063446,9.025841,1.316533,-0.979510,0.101733
1980-01-06T00:28:54.148040744Z,2.916138,-0.063446,8.149563,1.255679,-1.087634,-0.030360
1980-01-06T00:28:54.207704182Z,2.995146,0.506374,6.124069,0.993625,-0.907471,-0.588558
1980-01-06T00:28:54.227580640Z,2.906561,0.758962,5.573402,0.829308,-0.791624,-0.782436
1980-01-06T00:28:54.247493140Z,2.673126,1.072602,4.859930,0.722382,-0.814261,-0.946487
1980-01-06T00:28:54.267291630Z,2.231396,1.265336,4.175189,0.637028,-0.788828,-1.079645
1980-01-06T00:28:54.287130380Z,1.951274,1.455675,3.342006,0.469115,-0.642753,-1.211737
1980-01-06T00:28:54.307032046Z,1.569399,1.796848,3.006818,0.286156,-0.517984,-1.341699
1980-01-06T00:28:54.327100275Z,0.994791,2.240973,2.631826,0.063250,-0.377902,-1.459944
1980-01-06T00:28:54.346741265Z,0.367510,2.360683,2.679710,-0.164450,-0.261123,-1.554752
1980-01-06T00:28:54.366600119Z,-0.436942,2.710236,3.340510,-0.430766,-0.293081,-1.546230
1980-01-06T00:28:54.386545380Z,-1.191115,3.221398,4.350863,-0.606268,-0.228632,-1.524925
1980-01-06T00:28:54.406406994Z,-1.618480,3.951630,5.002086,-0.708800,-0.121041,-1.482314
1980-01-06T00:28:54.426222515Z,-1.980005,4.316746,5.447407,-0.737828,-0.013183,-1.369396
1980-01-06T00:28:54.446136734Z,-2.272097,4.690241,5.734712,-0.716656,0.207993,-1.353417
1980-01-06T00:28:54.466010432Z,-2.729390,4.832696,5.935824,-0.786564,0.274705,-1.259674
1980-01-06T00:28:54.505730223Z,-3.424906,4.566940,6.721123,-1.082707,0.211188,-0.947552
1980-01-06T00:28:54.525609338Z,-3.495534,4.811148,7.295731,-1.186437,0.296809,-0.776044
1980-01-06T00:28:54.545486994Z,-3.372233,4.748899,8.377911,-1.298823,0.481100,-0.646082
1980-01-06T00:28:54.565323140Z,-3.403358,4.036624,8.066664,-1.303749,0.649278,-0.547013
1980-01-06T00:28:54.585205275Z,-3.235764,3.895366,9.436148,-1.380315,0.560595,-0.473510
1980-01-06T00:28:54.605050484Z,-3.187880,3.842694,10.015544,-1.408012,0.266982,-0.388289
1980-01-06T00:28:54.664668817Z,-4.027047,2.955642,10.829573,-1.246358,0.309859,0.019707
1980-01-06T00:28:54.684552098Z,-3.908534,2.290054,11.423335,-1.188301,0.186421,0.198672
1980-01-06T00:28:54.704448765Z,-3.840300,2.103306,10.824784,-1.264335,0.142745,0.346743
1980-01-06T00:28:54.724286473Z,-3.560178,2.042254,11.212646,-1.243429,0.143145,0.463922
1980-01-06T00:28:54.744152098Z,-3.147178,1.909376,11.356297,-1.135305,0.159390,0.542752
1980-01-06T00:28:54.764022411Z,-3.047819,1.807622,11.265318,-1.073919,0.118377,0.617320
1980-01-06T00:28:54.803764181Z,-3.570952,1.629254,12.098499,-0.935435,0.070441,0.911333
1980-01-06T00:28:54.823686629Z,-3.217807,1.355118,12.414535,-0.770718,0.099602,1.079645
1980-01-06T00:28:54.843517150Z,-2.759317,0.852336,12.381016,-0.634231,0.193745,1.201085
1980-01-06T00:28:54.863583192Z,-2.341529,0.626084,12.438477,-0.556334,0.153531,1.271392
1980-01-06T00:28:54.883259494Z,-2.394202,0.401029,12.816760,-0.517319,-0.037684,1.375788
1980-01-06T00:28:54.903108452Z,-2.476802,0.306458,13.080122,-0.421179,-0.041678,1.447160
1980-01-06T00:28:54.982604650Z,-1.151611,-0.423774,13.190256,0.192413,0.077631,1.683649
1980-01-06T00:28:55.002514442Z,-0.313640,-0.475249,13.123219,0.206262,-0.047671,1.659148
1980-01-06T00:28:55.022313556Z,-0.286107,-0.538695,13.027450,0.310524,-0.194277,1.632516
1980-01-06T00:28:55.042211890Z,-0.532710,-0.313640,13.113641,0.419048,-0.129962,1.627190
1980-01-06T00:28:55.062078504Z,-0.519542,0.045490,13.084910,0.556467,0.180030,1.662344
1980-01-06T00:28:55.121683765Z,0.284910,-0.968455,11.677120,1.071921,0.777243,1.556883
1980-01-06T00:28:55.141574494Z,0.070629,-1.393425,12.476784,0.852211,0.394414,1.447160
1980-01-06T00:28:55.161421890Z,-0.542287,-0.851139,12.855067,0.690424,-0.196807,1.443965
1980-01-06T00:28:55.181320431Z,-0.809240,0.128090,12.792818,0.751943,-0.403202,1.320394
1980-01-06T00:28:55.201171577Z,-0.676362,0.569820,12.122441,0.904142,-0.496280,1.267131
1980-01-06T00:28:55.221025640Z,-0.448913,0.417788,11.710639,0.961533,-0.470048,1.223455
1980-01-06T00:28:55.260787515Z,0.002394,0.503979,11.250953,0.877910,-0.508530,1.126516
1980-01-06T00:28:55.280723400Z,0.284910,0.627281,10.973225,0.862997,-0.670717,1.045556
1980-01-06T00:28:55.300529442Z,0.693121,0.390255,10.891822,0.847151,-0.867657,0.951813
1980-01-06T00:28:55.320403348Z,1.138443,0.676362,10.901399,0.873516,-1.017859,0.806937
1980-01-06T00:28:55.340265327Z,1.171962,0.745794,10.618883,0.885101,-1.193228,0.656735
1980-01-06T00:28:55.360114598Z,1.297657,0.395043,10.221446,0.918257,-1.297491,0.513990
1980-01-06T00:28:55.419754390Z,2.043451,1.534683,8.951921,1.036368,-1.157542,0.059655
1980-01-06T00:28:55.439608712Z,2.260126,1.915361,8.305486,0.996554,-1.192562,-0.060720
1980-01-06T00:28:55.459474390Z,2.463634,2.190695,7.826645,0.917591,-1.282045,-0.166181
1980-01-06T00:28:55.479381108Z,2.586935,2.444480,7.625533,0.874981,-1.352618,-0.258859
1980-01-06T00:28:55.499213296Z,2.722207,2.442086,7.371747,0.825979,-1.358611,-0.366451
1980-01-06T00:28:55.519079337Z,2.785654,2.391808,7.371747,0.780838,-1.340501,-0.417583
1980-01-06T00:28:55.578678035Z,3.033453,1.796848,6.619968,0.708800,-1.070723,-0.703074
1980-01-06T00:28:55.598562098Z,3.305195,1.094150,6.208165,0.653805,-1.133707,-0.807470
1980-01-06T00:28:55.618446994Z,3.500323,0.694318,5.600038,0.543418,-1.176717,-0.879908
1980-01-06T00:28:55.638326108Z,3.646369,1.199495,5.092467,0.400805,-1.036901,-0.975781
1980-01-06T00:28:55.658199910Z,3.685874,1.838747,4.790798,0.346477,-0.865127,-1.082308
1980-01-06T00:28:55.678057983Z,3.592500,2.412158,4.599261,0.359793,-0.689758,-1.172855
1980-01-06T00:28:55.718002306Z,3.210624,3.234566,3.722984,0.612527,-0.642221,-1.378451
1980-01-06T00:28:55.737690067Z,3.089717,3.391387,3.052607,0.472311,-0.651542,-1.503087
1980-01-06T00:28:55.757575848Z,2.772485,3.961207,2.932897,0.166048,-0.666589,-1.582982
1980-01-06T00:28:55.777396577Z,2.300828,4.467580,3.047819,-0.075367,-0.585495,-1.685247
1980-01-06T00:28:55.797472567Z,1.811214,4.680665,3.493140,-0.179763,-0.630237,-1.749163
1980-01-06T00:28:55.817342150Z,1.259350,4.764462,3.469198,-0.347010,-0.757935,-1.742771
1980-01-06T00:28:55.837025848Z,0.713472,4.592079,3.526659,-0.576308,-0.620915,-1.712944
1980-01-06T00:28:55.876776421Z,-0.039504,5.076905,4.134786,-0.951014,-0.271775,-1.673529
1980-01-06T00:28:55.896622514Z,-0.709881,5.062540,4.762067,-0.965528,-0.324905,-1.665007
1980-01-06T00:28:55.916705379Z,-1.261744,5.040992,5.087678,-0.948351,-0.561394,-1.567003
1980-01-06T00:28:55.936356160Z,-1.820790,5.173870,4.838682,-1.003212,-0.545282,-1.505217
1980-01-06T00:28:55.956213973Z,-2.035071,5.043386,4.833893,-1.063799,-0.454202,-1.370994
1980-01-06T00:28:55.976104702Z,-2.209848,4.747702,4.786009,-1.135305,-0.226369,-1.246358
1980-01-06T00:28:56.035649650Z,-2.551022,5.378574,7.371747,-1.184973,0.188152,-0.860733
1980-01-06T00:28:56.055549233Z,-2.558204,5.029021,7.481880,-1.063133,0.297608,-0.845819
1980-01-06T00:28:56.075466316Z,-2.699462,4.896142,7.414843,-1.144093,0.231695,-0.756337
1980-01-06T00:28:56.095331941Z,-2.797625,4.729745,7.759608,-1.322658,0.203465,-0.640223
1980-01-06T00:28:56.115166733Z,-2.555810,4.829105,8.339005,-1.399357,0.331830,-0.527305
1980-01-06T00:28:56.135047879Z,-2.598906,5.027823,8.669404,-1.348091,0.498011,-0.485760
1980-01-06T00:28:56.174814650Z,-2.950854,4.273650,9.344569,-1.478719,0.272841,-0.355798
1980-01-06T00:28:56.194664962Z,-3.265691,4.186262,9.660604,-1.709082,0.207460,-0.232227
1980-01-06T00:28:56.214549858Z,-4.046201,4.489128,9.244013,-1.517867,0.224105,-0.078829
1980-01-06T00:28:56.234408035Z,-3.906140,4.018668,10.192117,-1.672331,0.435959,0.238619
1980-01-06T00:28:56.254274806Z,-3.240552,4.072537,11.528081,-1.537575,0.760465,0.436758
1980-01-06T00:28:56.274168712Z,-2.953248,3.969586,11.762712,-1.276718,0.913996,0.453802
1980-01-06T00:28:56.294032879Z,-2.989161,3.557784,11.877635,-1.088832,0.723447,0.521979
1980-01-06T00:28:56.333828764Z,-2.998738,2.650381,11.532869,-1.057008,0.542619,0.850080
1980-01-06T00:28:56.353621837Z,-2.164358,2.729390,12.231977,-1.009737,0.688427,1.017327
1980-01-06T00:28:56.373517983Z,-1.872266,2.851494,11.925519,-0.853276,0.825579,1.001348
1980-01-06T00:28:56.393402098Z,-1.857901,2.018312,12.169727,-0.687894,0.656202,0.985369
1980-01-06T00:28:56.413244702Z,-1.521515,0.732626,12.255919,-0.639025,0.589757,1.050350
1980-01-06T00:28:56.433121785Z,-0.968455,0.776918,12.394782,-0.589757,0.713860,1.018392
1980-01-06T00:28:56.492726368Z,-0.135272,-0.108936,12.308591,-0.069508,0.747016,0.752076
1980-01-06T00:28:56.512603452Z,-0.377087,0.191536,12.040441,0.084289,0.525308,0.637028
1980-01-06T00:28:56.532497931Z,-1.234211,0.591368,11.255142,0.205196,0.294545,0.557133
1980-01-06T00:28:56.552332566Z,-1.890222,0.627281,10.872070,0.206395,0.078297,0.649811
1980-01-06T00:28:56.572245535Z,-1.981202,0.501585,10.623073,0.127299,0.019441,0.807470
1980-01-06T00:28:56.592055170Z,-1.618480,0.610521,10.757148,0.136753,0.174171,0.843689
1980-01-06T00:28:56.651663712Z,-0.474052,0.815226,11.077971,0.184823,0.303733,0.663659
1980-01-06T00:28:56.671555639Z,-0.288501,0.812831,11.087548,0.178432,0.262587,0.557133
1980-01-06T00:28:56.691436577Z,-0.264559,0.720655,10.934319,0.094675,0.138884,0.552872
1980-01-06T00:28:56.711301993Z,-0.169988,0.743400,10.886436,0.062584,0.076166,0.461259
1980-01-06T00:28:56.731171316Z,-0.325611,0.798466,10.618284,0.054062,0.034754,0.360059
1980-01-06T00:28:56.751008243Z,-0.533907,0.975637,10.398018,0.065247,0.000266,0.295078
1980-01-06T00:28:56.790745274Z,-1.146823,1.167173,9.880871,0.093743,0.002796,0.199204
1980-01-06T00:28:56.810630847Z,-1.351527,1.298854,9.780313,0.142479,-0.104529,0.180030
1980-01-06T00:28:56.830514806Z,-1.492785,1.122881,9.545682,0.170309,-0.099336,0.147006
1980-01-06T00:28:56.850368347Z,-1.383849,1.229423,9.224859,0.164983,0.002131,0.102265
1980-01-06T00:28:56.870265170Z,-1.221043,1.174356,9.109938,0.122772,0.011452,0.080960
1980-01-06T00:28:56.890128139Z,-1.101333,1.291672,9.124303,0.055660,-0.111453,0.060720
1980-01-06T00:28:56.949708035Z,-1.268927,1.315614,8.975863,-0.109056,-0.092811,-0.006392
1980-01-06T00:28:56.969654962Z,-0.876278,1.434127,9.093178,-0.125302,-0.057791,-0.062851
1980-01-06T00:28:56.989486056Z,-0.865504,1.438915,9.093178,-0.093477,-0.145142,-0.140615
1980-01-06T00:28:57.009305795Z,-1.077391,1.355118,9.016563,-0.096273,-0.295078,-0.157659
1980-01-06T00:28:57.029208347Z,-1.207875,1.272518,8.772355,-0.147140,-0.357396,-0.183225
1980-01-06T00:28:57.049112618Z,-1.048660,1.243788,8.690952,-0.174037,-0.351271,-0.259924
1980-01-06T00:28:57.108691733Z,-0.942118,1.301249,8.384495,-0.230896,-0.357130,-0.377103
1980-01-06T00:28:57.128566941Z,-0.810437,1.459266,8.336611,-0.201202,-0.415320,-0.368581
1980-01-06T00:28:57.148445378Z,-0.594959,1.465251,7.991845,-0.153398,-0.455001,-0.346211
1980-01-06T00:28:57.168406733Z,-0.348356,1.131260,7.690176,-0.126367,-0.419980,-0.406931
1980-01-06T00:28:57.188269024Z,-0.550666,0.420182,7.776367,-0.173904,-0.332229,-0.496413
1980-01-06T00:28:57.208084858Z,-1.098939,0.325611,8.623915,-0.429301,-0.289885,-0.502804
1980-01-06T00:28:57.267653868Z,-1.015141,1.248576,9.284714,-0.559397,-0.363654,-0.542219
1980-01-06T00:28:57.287536003Z,-1.073799,0.860716,9.351752,-0.579503,-0.515588,-0.495348
1980-01-06T00:28:57.307385118Z,-1.418565,0.487220,9.878476,-0.673513,-0.539423,-0.425040
1980-01-06T00:28:57.327270483Z,-1.719037,0.335188,10.098742,-0.800945,-0.415186,-0.358994
1980-01-06T00:28:57.347104389Z,-1.543063,0.137667,10.414778,-0.849415,-0.210656,-0.320644
1980-01-06T00:28:57.367028764Z,-1.234211,0.410606,10.658986,-0.769120,-0.102931,-0.304665
1980-01-06T00:28:57.387063555Z,-1.194707,0.337582,10.989386,-0.665390,-0.054462,-0.279099
1980-01-06T00:28:57.406782983Z,-1.934515,-2.359486,7.235278,-0.790825,-2.701642,1.306013
1980-01-06T00:28:57.426659753Z,-1.332373,-1.138443,6.004658,1.380315,-0.082425,-1.036501
1980-01-06T00:28:57.446509233Z,-0.861913,-0.787692,9.758766,0.031292,-0.191481,-0.003196
1980-01-06T00:28:57.466372045Z,0.055067,-0.118513,9.701305,-0.014248,0.002131,-0.121440
1980-01-06T00:28:57.486233191Z,0.099359,-0.181959,9.567230,-0.056992,-0.017976,-0.025566
