timestamp,accel_x,accel_y,accel_z,gyro_x,gyro_y,gyro_z
1980-01-06T00:24:35.160481885Z,-0.010774,-0.251391,9.708787,-0.008788,-0.007590,-0.013848
1980-01-06T00:24:35.180349437Z,-0.058658,-0.116119,9.799767,-0.006392,-0.007324,-0.014914
1980-01-06T00:24:35.219718291Z,-0.031125,-0.140061,9.723152,-0.001065,-0.008389,-0.014914
1980-01-06T00:24:35.239569801Z,0.016759,-0.167594,9.732729,-0.000932,-0.008256,-0.013848
1980-01-06T00:24:35.259483708Z,-0.005986,-0.179565,9.660903,0.001598,-0.007590,-0.013848
1980-01-06T00:24:35.279345999Z,-0.035913,-0.185551,9.708787,0.003196,-0.008256,-0.014914
1980-01-06T00:24:35.299231520Z,-0.016759,-0.185551,9.713575,-0.000932,-0.009055,-0.013848
1980-01-06T00:24:35.319151312Z,-0.023942,-0.228646,9.660903,-0.000000,-0.007723,-0.013848
1980-01-06T00:24:35.339176676Z,-0.008380,-0.231040,9.675268,-0.001465,-0.007856,-0.014914
1980-01-06T00:24:35.378709385Z,-0.001197,-0.204704,9.699210,-0.002264,-0.007856,-0.013848
1980-01-06T00:24:35.398625374Z,-0.033519,-0.203507,9.708787,-0.002131,-0.008123,-0.013848
1980-01-06T00:24:35.418420999Z,-0.034716,-0.203507,9.708787,-0.002663,-0.008256,-0.014914
1980-01-06T00:24:35.438267718Z,-0.009577,-0.195127,9.713575,-0.002796,-0.009188,-0.014914
1980-01-06T00:24:35.458169645Z,-0.001197,-0.193930,9.708787,-0.002796,-0.008256,-0.014914
1980-01-06T00:24:35.478005374Z,0.019154,-0.191536,9.703999,-0.003196,-0.007590,-0.013848
1980-01-06T00:24:35.517770947Z,-0.027533,-0.189142,9.703999,-0.002264,-0.007723,-0.013848
1980-01-06T00:24:35.537672822Z,-0.031125,-0.196325,9.699210,-0.002397,-0.007856,-0.013848
1980-01-06T00:24:35.557526885Z,-0.015562,-0.208296,9.708787,-0.002530,-0.007989,-0.013848
1980-01-06T00:24:35.577434853Z,-0.002394,-0.219069,9.694422,-0.001598,-0.007989,-0.013848
1980-01-06T00:24:35.597266260Z,-0.014365,-0.198719,9.703999,-0.002264,-0.007856,-0.013848
1980-01-06T00:24:35.617207457Z,-0.016759,-0.183156,9.713575,-0.002264,-0.008256,-0.013848
1980-01-06T00:24:35.696627978Z,-0.428562,-1.982399,9.426271,-0.039548,-0.036618,-0.011718
1980-01-06T00:24:35.716456155Z,0.049081,-0.840365,9.617807,-0.185090,0.001065,-0.013848
1980-01-06T00:24:35.736338759Z,0.119710,-0.217872,9.952995,0.049002,-0.006392,-0.017044
1980-01-06T00:24:35.756250999Z,-0.172383,-0.210690,9.766248,0.031825,-0.003728,-0.017044
1980-01-06T00:24:35.776098447Z,0.017957,-0.243011,9.656115,0.011851,-0.014781,-0.013848
1980-01-06T00:24:35.835711676Z,-0.318429,-0.258574,9.617807,-0.025566,-0.033822,-0.051133
1980-01-06T00:24:35.855585009Z,-0.730232,0.089783,9.909900,-0.012650,-0.022770,-0.125701
1980-01-06T00:24:35.875482093Z,-0.497994,0.117316,9.827899,-0.003196,-0.002796,-0.126234
1980-01-06T00:24:35.895331364Z,-1.022324,-0.046687,9.784803,0.034222,0.005992,-0.043143
1980-01-06T00:24:35.915174489Z,-1.657985,-0.518345,9.689035,0.090947,0.006924,-0.094276
1980-01-06T00:24:35.935055947Z,-1.821988,-0.337582,9.732131,0.052464,0.001864,0.044208
1980-01-06T00:24:35.974819436Z,-2.655170,0.383072,10.009858,-0.036885,0.203199,0.341417
1980-01-06T00:24:35.994656728Z,-2.565387,0.742203,10.287585,-0.061785,0.367915,0.462857
1980-01-06T00:24:36.014614697Z,-2.412158,0.665588,10.278008,-0.127698,0.361391,0.650343
1980-01-06T00:24:36.034453447Z,-2.414552,0.596156,10.368988,-0.257927,0.337955,0.800546
1980-01-06T00:24:36.054263551Z,-2.537854,1.136049,10.479121,-0.336357,0.213452,0.927312
1980-01-06T00:24:36.074177041Z,-2.479196,1.199495,10.579678,-0.360059,0.057391,1.147821
1980-01-06T00:24:36.094020895Z,-2.252944,0.539892,10.297162,-0.296010,0.144476,1.205346
1980-01-06T00:24:36.133748343Z,-1.872266,0.319626,11.293150,-0.290284,0.381098,1.334243
1980-01-06T00:24:36.153622926Z,-1.589750,0.258574,11.561300,-0.149004,0.478969,1.340634
1980-01-06T00:24:36.173493447Z,-1.326388,0.043096,11.657069,-0.017976,0.399873,1.373657
1980-01-06T00:24:36.193384541Z,-1.198298,-0.232238,11.475109,-0.077232,0.267381,1.422659
1980-01-06T00:24:36.213290999Z,-1.133654,-0.323217,11.590032,-0.101600,0.186155,1.459944
1980-01-06T00:24:36.233104488Z,-1.057040,-0.396240,11.575665,-0.043409,0.233825,1.454617
1980-01-06T00:24:36.312587405Z,-0.368707,-1.152808,11.518205,0.082691,0.083357,1.339569
1980-01-06T00:24:36.332460582Z,-0.477643,-1.189918,11.173440,0.111586,-0.070574,1.293763
1980-01-06T00:24:36.352335634Z,-0.527921,-1.069011,11.092037,0.111187,-0.083224,1.260739
1980-01-06T00:24:36.372202040Z,-0.693121,-1.104924,10.939706,0.184823,0.087884,1.135038
1980-01-06T00:24:36.392072874Z,-0.486023,-1.006762,10.920552,0.259259,0.144210,1.032773
1980-01-06T00:24:36.451678707Z,-0.560243,-1.072602,11.045051,0.172440,-0.493084,0.921986
1980-01-06T00:24:36.471579332Z,-0.848745,-0.956484,10.508750,0.064848,-0.541953,0.826112
1980-01-06T00:24:36.491408395Z,-0.787692,-0.726640,10.436924,0.290018,-0.477371,0.701476
1980-01-06T00:24:36.511285634Z,-0.737414,-0.696713,10.489596,0.384028,-0.351803,0.634364
1980-01-06T00:24:36.531167822Z,-0.553061,-0.536301,10.523115,0.423442,-0.314919,0.659931
1980-01-06T00:24:36.551019801Z,-0.371101,-0.513556,10.331579,0.404401,-0.279765,0.684432
1980-01-06T00:24:36.610641311Z,0.172383,-0.513556,9.627684,0.447943,-0.522112,0.543817
1980-01-06T00:24:36.630534749Z,0.446519,-0.281319,9.948506,0.427703,-0.637294,0.473510
1980-01-06T00:24:36.650357040Z,0.641646,-0.222661,10.077793,0.447011,-0.749812,0.404268
1980-01-06T00:24:36.670274384Z,0.687136,-0.480037,10.216658,0.421179,-0.818522,0.344613
1980-01-06T00:24:36.690152561Z,0.682347,-0.342371,10.432136,0.398009,-0.866858,0.261522
1980-01-06T00:24:36.710018655Z,0.612916,-0.120907,10.681132,0.427703,-0.963131,0.192280
1980-01-06T00:24:36.749935582Z,0.712275,0.038307,10.451289,0.556733,-1.076715,0.054861
1980-01-06T00:24:36.769649280Z,0.931344,0.229843,10.235811,0.575242,-1.069125,-0.002663
1980-01-06T00:24:36.789487874Z,1.318008,0.198719,9.910199,0.551407,-1.076449,0.018642
1980-01-06T00:24:36.809393499Z,1.816002,0.257377,9.814431,0.513990,-0.893090,-0.021838
1980-01-06T00:24:36.829218811Z,2.309207,0.450110,9.632472,0.561660,-0.647680,-0.087884
1980-01-06T00:24:36.849090530Z,2.910152,0.700304,9.287707,0.648479,-0.419581,-0.174171
1980-01-06T00:24:36.908692822Z,3.728969,0.318429,8.191162,0.672980,-0.374174,-0.590689
1980-01-06T00:24:36.928570686Z,3.605668,0.326809,8.004415,0.534762,-0.602407,-0.757935
1980-01-06T00:24:36.948434384Z,3.343503,0.488417,7.860763,0.415586,-0.847284,-0.893223
1980-01-06T00:24:36.968338290Z,3.160346,0.804452,7.784148,0.418649,-0.928111,-0.983771
1980-01-06T00:24:36.988171936Z,3.028665,0.927753,7.597401,0.496013,-0.837563,-1.149952
1980-01-06T00:24:37.008037092Z,3.174711,0.881066,7.520786,0.503071,-0.907072,-1.286306
1980-01-06T00:24:37.067703082Z,2.264915,1.602918,7.041946,0.337689,-0.852344,-1.430116
1980-01-06T00:24:37.087545165Z,1.984793,1.704672,6.941389,0.322908,-0.595615,-1.432247
1980-01-06T00:24:37.107388967Z,1.826776,1.954866,7.061100,0.338621,-0.377769,-1.375788
1980-01-06T00:24:37.127481311Z,1.978808,2.138022,7.094618,0.350072,-0.240750,-1.368331
1980-01-06T00:24:37.147164801Z,2.164358,2.306813,7.013216,0.336357,-0.255131,-1.403485
1980-01-06T00:24:37.167042717Z,2.027889,2.492364,6.788160,0.289485,-0.326503,-1.420529
1980-01-06T00:24:37.226622144Z,1.490391,3.081338,6.433818,0.010386,-0.301336,-1.404550
1980-01-06T00:24:37.246524332Z,1.474828,3.518279,6.304532,-0.062717,-0.266316,-1.396028
1980-01-06T00:24:37.266391103Z,1.335965,3.593697,6.328474,-0.170176,-0.189750,-1.376853
1980-01-06T00:24:37.286262248Z,1.175553,3.730166,6.716334,-0.215450,-0.139683,-1.340634
1980-01-06T00:24:37.306112457Z,1.005565,3.861847,6.730700,-0.194544,-0.120375,-1.295893
1980-01-06T00:24:37.326028915Z,0.675165,3.634398,6.778584,-0.206927,-0.113317,-1.260739
1980-01-06T00:24:37.365754905Z,0.712275,3.791218,6.668450,-0.394281,-0.034355,-1.218129
1980-01-06T00:24:37.385700373Z,0.562637,3.840300,6.678027,-0.408662,0.037417,-1.180845
1980-01-06T00:24:37.405490998Z,0.389058,3.772065,6.654085,-0.403735,0.100268,-1.157409
1980-01-06T00:24:37.425327665Z,0.271742,3.748123,6.687604,-0.471113,0.097472,-1.139299
1980-01-06T00:24:37.445184957Z,0.208296,3.849876,6.658874,-0.542219,0.097738,-1.149952
1980-01-06T00:24:37.465100634Z,0.013168,3.659537,6.874352,-0.588558,0.037684,-1.144626
1980-01-06T00:24:37.504784696Z,-0.472855,3.531447,7.377134,-0.687361,-0.212520,-1.190432
1980-01-06T00:24:37.524682040Z,-0.659603,3.404555,7.626131,-0.712129,-0.386557,-1.152082
1980-01-06T00:24:37.544541311Z,-0.719458,3.651158,7.937377,-0.769120,-0.408795,-1.104146
1980-01-06T00:24:37.564500373Z,-0.954089,3.645172,8.037933,-0.779640,-0.304399,-1.072188
1980-01-06T00:24:37.584268186Z,-1.027112,3.439271,8.310873,-0.754606,-0.180163,-0.963531
1980-01-06T00:24:37.604240946Z,-1.201889,3.287239,8.569447,-0.708933,0.001332,-0.857005
1980-01-06T00:24:37.624049384Z,-1.429338,3.204639,8.698733,-0.661529,0.135422,-0.767522
1980-01-06T00:24:37.683681675Z,-1.295263,3.051410,9.144653,-0.654205,0.261522,-0.560329
1980-01-06T00:24:37.703522821Z,-1.502362,2.695871,9.436746,-0.572446,0.285757,-0.466585
1980-01-06T00:24:37.723403602Z,-1.541866,2.679112,9.508572,-0.524243,0.439421,-0.446345
1980-01-06T00:24:37.743494280Z,-1.636437,2.773683,9.431957,-0.465121,0.440353,-0.425040
1980-01-06T00:24:37.763472509Z,-1.668759,2.385822,9.384073,-0.453003,0.332096,-0.349406
1980-01-06T00:24:37.783252300Z,-1.673547,2.021903,9.288305,-0.491619,0.298673,-0.318514
1980-01-06T00:24:37.822741311Z,-1.703475,2.280477,9.583391,-0.617187,0.176701,-0.218912
1980-01-06T00:24:37.842588550Z,-1.698686,2.097321,9.683948,-0.603871,0.146207,-0.180562
1980-01-06T00:24:37.862476519Z,-1.733402,2.015918,9.597756,-0.566054,0.166314,-0.170975
1980-01-06T00:24:37.882338811Z,-1.636437,2.102109,9.468470,-0.542619,0.143012,-0.111320
1980-01-06T00:24:37.902224019Z,-1.644817,2.096124,9.621698,-0.587093,0.098404,-0.007989
1980-01-06T00:24:37.922064123Z,-1.527501,1.918953,9.549872,-0.619318,0.130095,-0.014381
1980-01-06T00:24:37.981689175Z,-1.786075,1.798046,9.885060,-0.681103,-0.114915,0.076166
1980-01-06T00:24:38.001583602Z,-2.161964,1.505953,9.066243,-0.568318,-0.021838,0.066579
1980-01-06T00:24:38.021475946Z,-1.985990,1.070208,9.861118,-0.612660,0.068843,0.174171
1980-01-06T00:24:38.041295582Z,-1.941698,0.913388,10.325593,-0.735032,0.112785,0.280697
1980-01-06T00:24:38.061204748Z,-1.995567,0.938527,10.090961,-0.781105,0.159923,0.282827
1980-01-06T00:24:38.081046102Z,-1.985990,0.820014,10.909779,-0.664991,0.079096,0.342482
1980-01-06T00:24:38.140659748Z,-2.145205,0.514753,10.469246,-0.365119,0.055394,0.442617
1980-01-06T00:24:38.160560946Z,-2.299631,0.263362,9.880272,-0.375505,-0.045007,0.543817
1980-01-06T00:24:38.180427352Z,-1.978808,0.227449,10.531495,-0.483896,-0.095874,0.685497
1980-01-06T00:24:38.200277196Z,-1.899799,0.304064,10.507553,-0.540089,0.048203,0.731303
1980-01-06T00:24:38.220152040Z,-1.878251,0.694318,10.732608,-0.447011,0.108790,0.752609
1980-01-06T00:24:38.279771571Z,-2.056619,-0.209493,10.033501,-0.444215,0.007989,0.981640
1980-01-06T00:24:38.299637040Z,-1.835156,-0.138864,10.383054,-0.477904,0.121440,1.019990
1980-01-06T00:24:38.319503290Z,-1.656788,-0.076614,10.756550,-0.491220,0.274572,1.004011
1980-01-06T00:24:38.339357404Z,-1.611298,0.283713,10.876260,-0.419847,0.305198,0.966727
1980-01-06T00:24:38.359289436Z,-1.746570,0.013168,10.598533,-0.379234,0.139017,1.012533
1980-01-06T00:24:38.379183550Z,-1.855506,-0.434548,10.349535,-0.404667,0.093344,1.070057
1980-01-06T00:24:38.438700321Z,-1.641225,-0.566229,10.943297,-0.339819,0.195343,1.145691
1980-01-06T00:24:38.458589071Z,-1.523909,-0.963666,11.173141,-0.304932,0.153132,1.200019
1980-01-06T00:24:38.478447665Z,-1.455675,-1.114501,11.407773,-0.286023,0.067378,1.207476
1980-01-06T00:24:38.498301154Z,-1.611298,-1.318008,11.407773,-0.269112,-0.015579,1.208542
1980-01-06T00:24:38.518193810Z,-1.551443,-1.423353,11.604097,-0.276303,-0.037151,1.241565
1980-01-06T00:24:38.538051363Z,-1.276109,-1.267730,11.771691,-0.242747,-0.012650,1.250087
1980-01-06T00:24:38.577801102Z,-1.171962,-1.610101,12.039842,-0.125302,-0.159656,1.277784
1980-01-06T00:24:38.597667144Z,-0.926556,-1.398214,12.102091,-0.116114,-0.215450,1.254348
1980-01-06T00:24:38.617547717Z,-0.942118,-1.150414,12.030265,-0.026632,-0.340751,1.234108
1980-01-06T00:24:38.637448706Z,-1.112107,-1.583764,11.896190,0.060986,-0.429434,1.231977
1980-01-06T00:24:38.657341102Z,-1.169568,-1.651999,11.608886,0.045274,-0.466319,1.195758
1980-01-06T00:24:38.677182404Z,-0.826000,-1.778892,11.680712,0.057657,-0.642354,1.293763
1980-01-06T00:24:38.697052456Z,-0.354342,-2.019509,11.719019,0.124769,-0.582166,1.302285
1980-01-06T00:24:38.736808237Z,0.233435,-1.715446,11.345523,0.257661,-0.424374,1.112668
1980-01-06T00:24:38.756682821Z,0.506374,-1.765724,11.101315,0.301603,-0.571913,1.070057
1980-01-06T00:24:38.776516310Z,0.566229,-1.432930,12.355876,0.435959,-0.734499,0.985901
1980-01-06T00:24:38.796417248Z,0.146046,-1.702277,10.991181,0.245943,-0.663127,0.978445
1980-01-06T00:24:38.816261519Z,0.343568,-1.599327,10.914567,0.436625,-0.613858,0.915594
1980-01-06T00:24:38.836098342Z,0.361524,-1.461660,10.881048,0.499875,-0.483630,0.837830
1980-01-06T00:24:38.856045842Z,0.418985,-1.284489,10.550649,0.545814,-0.370712,0.708933
1980-01-06T00:24:38.915590217Z,0.791284,-1.175553,9.473258,0.316516,-0.590955,0.387223
1980-01-06T00:24:38.935450529Z,0.936133,-0.762553,9.454104,0.229697,-0.555269,0.375505
1980-01-06T00:24:38.955340789Z,1.218649,-0.587777,9.885060,0.335957,-0.519050,0.363788
1980-01-06T00:24:38.975202769Z,1.523909,-0.809240,9.813234,0.483630,-0.485494,0.283893
1980-01-06T00:24:38.995078862Z,1.655591,-1.082179,9.760562,0.551407,-0.458196,0.168844
1980-01-06T00:24:39.054677560Z,1.435324,-0.539892,9.904214,0.507731,-0.618252,0.032491
1980-01-06T00:24:39.074560217Z,1.552640,-0.173580,9.899426,0.565788,-0.556068,-0.013316
1980-01-06T00:24:39.094433498Z,1.675941,-0.056264,9.837176,0.653140,-0.547013,-0.044208
1980-01-06T00:24:39.114302769Z,1.760935,-0.125696,9.478046,0.647014,-0.513590,-0.084688
1980-01-06T00:24:39.134189227Z,1.940500,-0.089783,9.315240,0.576973,-0.425306,-0.102798
1980-01-06T00:24:39.154061571Z,2.153584,0.221464,9.252991,0.503337,-0.327835,-0.129430
1980-01-06T00:24:39.193800060Z,2.545036,0.385466,9.214684,0.466585,-0.228632,-0.223173
1980-01-06T00:24:39.213729123Z,2.749741,0.489614,9.008782,0.451938,-0.199204,-0.297741
1980-01-06T00:24:39.233524071Z,2.950854,0.671574,8.611345,0.458463,-0.175103,-0.389354
1980-01-06T00:24:39.253357248Z,3.186682,0.848745,8.525154,0.463256,-0.155795,-0.532099
1980-01-06T00:24:39.273252352Z,3.145981,1.007959,8.453327,0.463390,-0.265650,-0.667388
1980-01-06T00:24:39.293136675Z,2.761712,0.992397,8.462905,0.453136,-0.409061,-0.762196
1980-01-06T00:24:39.313009071Z,2.475605,1.259350,8.731055,0.420513,-0.477238,-0.845287
1980-01-06T00:24:39.372643602Z,2.070984,1.270124,8.185177,0.396411,-0.345678,-0.940095
1980-01-06T00:24:39.392487716Z,2.106898,1.395820,8.156446,0.378967,-0.272974,-0.953943
1980-01-06T00:24:39.412350216Z,2.181118,1.514333,8.228272,0.355931,-0.240350,-0.978445
1980-01-06T00:24:39.432239748Z,2.148796,1.478420,8.166023,0.342083,-0.282162,-1.017859
1980-01-06T00:24:39.452100789Z,1.969231,1.572991,8.156446,0.349939,-0.353534,-1.054078
1980-01-06T00:24:39.511701258Z,1.509544,2.015918,7.634511,0.282029,-0.285224,-1.100950
1980-01-06T00:24:39.531576675Z,1.447295,2.462436,7.423821,0.225170,-0.242747,-1.091362
1980-01-06T00:24:39.551469487Z,1.329979,2.426523,7.328053,0.184424,-0.264718,-1.063666
1980-01-06T00:24:39.571299383Z,1.195904,2.379837,7.275381,0.155129,-0.294679,-1.057274
1980-01-06T00:24:39.591200789Z,1.074997,2.539051,7.122151,0.066712,-0.288686,-1.053013
1980-01-06T00:24:39.611276466Z,1.122881,2.643199,7.088633,-0.005726,-0.238220,-1.034904
1980-01-06T00:24:39.670641883Z,1.207875,3.191471,7.514801,-0.123837,-0.135555,-0.937965
1980-01-06T00:24:39.690547039Z,1.274912,3.177106,7.826047,-0.116780,-0.135555,-0.919855
1980-01-06T00:24:39.710405112Z,1.223437,3.169923,7.907450,-0.074036,-0.040081,-0.960335
1980-01-06T00:24:39.730289800Z,1.009156,3.167529,7.739856,-0.036219,0.021305,-0.995489
1980-01-06T00:24:39.750184487Z,0.830788,3.230975,7.495647,-0.067378,0.019574,-0.988032
1980-01-06T00:24:39.770017873Z,0.588974,3.246537,7.591415,-0.125035,-0.021971,-0.963531
1980-01-06T00:24:39.829618029Z,-0.082600,3.354277,7.778163,-0.311723,-0.133424,-0.871918
1980-01-06T00:24:39.849555685Z,0.046687,3.458424,7.883508,-0.377769,-0.073237,-0.816525
1980-01-06T00:24:39.869564122Z,-0.058658,3.330335,8.084620,-0.401471,-0.076832,-0.756870
1980-01-06T00:24:39.889274279Z,-0.195127,3.096900,8.175600,-0.396145,-0.045274,-0.712129
1980-01-06T00:24:39.909157925Z,-0.316035,3.149572,8.362348,-0.424508,-0.021438,-0.700411
1980-01-06T00:24:39.968782247Z,-0.476446,2.958036,8.630499,-0.415053,-0.049934,-0.542752
1980-01-06T00:24:39.988603289Z,-0.553061,3.137601,8.783728,-0.415320,0.090947,-0.537425
1980-01-06T00:24:40.008457247Z,-0.615310,3.241749,8.975264,-0.374973,0.133557,-0.494815
1980-01-06T00:24:40.028334643Z,-0.703895,3.021482,9.085397,-0.360858,0.153931,-0.434095
1980-01-06T00:24:40.048221102Z,-0.678756,2.956839,9.051878,-0.356464,0.215982,-0.430899
1980-01-06T00:24:40.068298185Z,-0.561440,3.190274,9.166800,-0.375106,0.249405,-0.422377
1980-01-06T00:24:40.127658133Z,-0.870292,2.940080,9.406219,-0.330631,0.279499,-0.296676
1980-01-06T00:24:40.147564279Z,-0.932542,2.852691,9.487623,-0.308527,0.233026,-0.248739
1980-01-06T00:24:40.167400737Z,-0.997185,2.543839,9.372701,-0.282295,0.211588,-0.206128
1980-01-06T00:24:40.187304956Z,-0.773327,2.638410,9.918579,-0.385226,0.262854,-0.212520
1980-01-06T00:24:40.207169279Z,-0.812831,2.859874,9.387066,-0.280031,0.172839,-0.230630
1980-01-06T00:24:40.227025581Z,-0.961272,2.712631,9.535507,-0.420646,0.113717,-0.135821
1980-01-06T00:24:40.266782456Z,-0.891840,2.330755,9.597756,-0.402004,0.197606,-0.110255
1980-01-06T00:24:40.286631414Z,-0.919373,2.728193,9.592968,-0.365785,0.243679,-0.111320
1980-01-06T00:24:40.306511310Z,-1.004368,2.557007,9.707890,-0.419314,0.187486,-0.060187
1980-01-06T00:24:40.326380476Z,-1.071405,2.136825,9.545084,-0.415453,0.135555,-0.005859
1980-01-06T00:24:40.346308133Z,-1.080982,2.134431,10.186729,-0.499342,0.201468,0.065514
1980-01-06T00:24:40.366122456Z,-1.124078,2.337938,10.445304,-0.450606,0.289352,0.076166
1980-01-06T00:24:40.386018914Z,-1.051055,2.221819,10.560225,-0.360192,0.338487,0.079362
1980-01-06T00:24:40.425727924Z,-1.152808,2.053028,10.354323,-0.240750,0.391085,0.087884
1980-01-06T00:24:40.445632039Z,-1.389834,1.962048,10.071808,-0.254465,0.358461,0.077232
1980-01-06T00:24:40.465476414Z,-1.493982,1.650802,9.688736,-0.262721,0.265916,0.132625
1980-01-06T00:24:40.485346206Z,-1.436521,1.533486,10.014347,-0.411192,0.332629,0.174171
1980-01-06T00:24:40.505227456Z,-1.492785,1.740585,9.798869,-0.398542,0.331963,0.161387
1980-01-06T00:24:40.525079539Z,-1.679533,1.714248,9.573814,-0.452471,0.238220,0.183758
1980-01-06T00:24:40.584908549Z,-2.209848,1.321599,9.257779,-0.477238,0.052198,0.370179
1980-01-06T00:24:40.604602924Z,-2.132037,1.139640,9.525930,-0.526773,0.210390,0.478836
1980-01-06T00:24:40.624412351Z,-1.543063,1.242591,10.052654,-0.588824,0.372576,0.478836
1980-01-06T00:24:40.644299331Z,-1.476025,1.306037,10.143634,-0.583631,0.226502,0.477771
1980-01-06T00:24:40.664162247Z,-1.871069,1.013944,10.057443,-0.533031,0.014781,0.520381
1980-01-06T00:24:40.684025320Z,-1.879448,0.755371,10.301651,-0.533564,0.010653,0.607733
1980-01-06T00:24:40.743691830Z,-1.939303,0.574608,10.517130,-0.460726,0.263253,0.688693
1980-01-06T00:24:40.763726726Z,-2.157176,0.757765,10.569802,-0.435826,0.275903,0.716390
1980-01-06T00:24:40.783411830Z,-2.600103,0.644040,10.339958,-0.373641,0.222374,0.787762
1980-01-06T00:24:40.803323341Z,-2.706645,0.122104,10.062231,-0.429568,0.249139,0.940095
1980-01-06T00:24:40.823164435Z,-2.237381,-0.138864,10.531495,-0.535029,0.481233,1.043426
1980-01-06T00:24:40.843196049Z,-1.855506,0.015562,10.866683,-0.527838,0.569117,1.082840
1980-01-06T00:24:40.882741205Z,-1.511938,-0.316035,11.819575,-0.410792,0.191481,1.088167
1980-01-06T00:24:40.902745112Z,-1.661576,-0.494403,11.867459,-0.343681,0.020373,1.042360
1980-01-06T00:24:40.922684174Z,-2.076970,-0.322020,11.522695,-0.282694,-0.095341,1.049817
1980-01-06T00:24:40.942387247Z,-2.053028,-0.611719,11.422138,-0.246875,-0.110388,1.149952
1980-01-06T00:24:40.962240216Z,-1.547851,-0.873884,11.628039,-0.209191,0.032224,1.161670
1980-01-06T00:24:40.982107091Z,-1.066617,-0.820014,11.690289,-0.174570,0.008123,1.124386
1980-01-06T00:24:41.041743914Z,-1.268927,-0.925359,11.618463,-0.080427,-0.329832,1.089232
1980-01-06T00:24:41.061600789Z,-1.073799,-0.736217,11.647193,0.054328,-0.244478,1.070057
1980-01-06T00:24:41.081441414Z,-0.987608,-0.700304,11.541848,0.154064,-0.214384,1.027447
1980-01-06T00:24:41.101303862Z,-0.891840,-0.980426,10.981605,0.298407,-0.288953,1.021055
1980-01-06T00:24:41.121194643Z,-0.732626,-0.824802,11.671135,0.249005,-0.314785,1.021055
1980-01-06T00:24:41.141067039Z,-0.684742,-0.621295,11.460146,0.264851,-0.314386,1.002946
1980-01-06T00:24:41.200656674Z,-0.329203,-0.521936,11.292552,0.389354,-0.324905,0.870853
1980-01-06T00:24:41.220520632Z,-0.359130,-0.360327,11.134534,0.394148,-0.397610,0.837830
1980-01-06T00:24:41.240403028Z,-0.487220,-0.216675,11.038766,0.400539,-0.378701,0.817590
1980-01-06T00:24:41.260262299Z,-0.563834,-0.105345,10.890326,0.409328,-0.314253,0.799480
1980-01-06T00:24:41.280143601Z,-0.384269,-0.096965,10.775404,0.440486,-0.314253,0.773914
1980-01-06T00:24:41.359606882Z,-0.209493,0.272939,10.248680,0.607200,-0.121573,0.794154
1980-01-06T00:24:41.379513809Z,0.031125,0.216675,10.301353,0.620915,-0.074702,0.841026
1980-01-06T00:24:41.399375059Z,0.211887,0.440533,10.286987,0.713727,-0.083490,0.819720
1980-01-06T00:24:41.419205997Z,0.375890,0.325611,10.234314,0.617187,-0.131560,0.772849
1980-01-06T00:24:41.439127924Z,0.588974,0.360327,10.061932,0.548211,-0.246875,0.664192
1980-01-06T00:24:41.498755372Z,0.386664,0.547075,10.512042,0.502671,-0.791224,0.330764
1980-01-06T00:24:41.518590059Z,0.578200,0.720655,10.468946,0.507731,-0.933837,0.249804
1980-01-06T00:24:41.538713966Z,0.758962,0.724246,10.052355,0.528903,-1.032906,0.181627
1980-01-06T00:24:41.558325007Z,1.104924,0.773327,9.678860,0.527039,-0.987899,0.096406
1980-01-06T00:24:41.578209799Z,1.586159,0.815226,9.367614,0.505468,-0.869788,0.026099
1980-01-06T00:24:41.598083236Z,1.985990,1.085770,9.348460,0.527971,-0.723580,-0.037817
1980-01-06T00:24:41.657884955Z,2.643199,0.824802,8.769063,0.681502,-0.499342,-0.325438
1980-01-06T00:24:41.677570320Z,2.756923,0.800860,8.524855,0.586960,-0.584563,-0.464988
1980-01-06T00:24:41.697488497Z,2.710236,0.857124,8.280646,0.532765,-0.721982,-0.580036
1980-01-06T00:24:41.717325007Z,2.546233,0.987608,8.117840,0.471379,-0.849548,-0.668453
1980-01-06T00:24:41.737370372Z,2.371457,1.121683,7.926304,0.465786,-0.860866,-0.745152
1980-01-06T00:24:41.757029382Z,2.244564,1.294066,7.653365,0.466985,-0.771783,-0.810133
1980-01-06T00:24:41.777116570Z,2.262521,1.387440,7.433098,0.440620,-0.645150,-0.855939
1980-01-06T00:24:41.816635320Z,2.674323,1.657985,6.954258,0.398941,-0.466585,-0.948617
1980-01-06T00:24:41.836503601Z,2.531868,1.746570,6.590340,0.315851,-0.438755,-0.980575
1980-01-06T00:24:41.856390840Z,2.596512,2.171541,6.638224,0.311856,-0.373908,-1.093493
1980-01-06T00:24:41.876269278Z,2.601300,2.412158,6.719626,0.350472,-0.403602,-1.126516
1980-01-06T00:24:41.896150736Z,2.372654,2.479196,6.662166,0.381098,-0.398142,-1.168061
1980-01-06T00:24:41.955744643Z,1.865083,3.075352,6.595128,0.234225,-0.241815,-1.308676
1980-01-06T00:24:41.975669695Z,1.657985,3.209427,6.748357,0.188685,-0.225969,-1.360874
1980-01-06T00:24:41.995487351Z,1.397017,3.610456,6.647800,0.162985,-0.266582,-1.409876
1980-01-06T00:24:42.015356257Z,1.049857,3.574543,6.355708,0.128631,-0.349140,-1.434377
1980-01-06T00:24:42.035217142Z,0.696713,3.288436,6.245574,0.054861,-0.393482,-1.420529
1980-01-06T00:24:42.055113236Z,0.675165,3.720589,6.240786,-0.141813,-0.307329,-1.431182
1980-01-06T00:24:42.114889590Z,-0.027533,4.240131,6.616376,-0.176301,-0.214384,-1.390702
1980-01-06T00:24:42.134582924Z,-0.172383,4.173094,6.443994,-0.220909,-0.186288,-1.334243
1980-01-06T00:24:42.154453653Z,-0.438139,4.070143,6.544550,-0.296410,-0.104529,-1.280979
1980-01-06T00:24:42.174338497Z,-0.650026,4.432865,6.740875,-0.378967,-0.019441,-1.243695
1980-01-06T00:24:42.194169851Z,-0.887052,4.689044,7.004237,-0.384427,-0.027564,-1.177649
1980-01-06T00:24:42.214070788Z,-1.016339,4.375403,6.913258,-0.349273,-0.017177,-1.143560
1980-01-06T00:24:42.273681778Z,-1.302446,4.216189,7.305906,-0.550874,0.005992,-1.000815
1980-01-06T00:24:42.293542611Z,-1.491588,4.337096,7.909245,-0.607333,0.018908,-0.968857
1980-01-06T00:24:42.313379955Z,-1.711854,4.394557,8.167819,-0.573644,-0.004394,-0.902811
1980-01-06T00:24:42.333275840Z,-1.861492,3.985149,8.306683,-0.482698,0.001198,-0.812263
1980-01-06T00:24:42.353157194Z,-1.895011,3.944447,8.110358,-0.468982,0.110787,-0.784567
1980-01-06T00:24:42.373017611Z,-1.867477,4.133589,8.249222,-0.584830,0.113451,-0.721716
1980-01-06T00:24:42.412764330Z,-1.850718,3.934870,9.053674,-0.672581,0.165382,-0.571514
1980-01-06T00:24:42.432654121Z,-1.972822,4.241328,9.111135,-0.550075,0.186687,-0.557665
1980-01-06T00:24:42.452460944Z,-2.061408,3.945644,8.766370,-0.497478,0.066712,-0.503337
1980-01-06T00:24:42.472396934Z,-1.968034,3.013103,8.589199,-0.534496,0.010786,-0.476705
1980-01-06T00:24:42.492191986Z,-1.867477,3.154361,8.752005,-0.732635,-0.041412,-0.457531
1980-01-06T00:24:42.512092090Z,-2.085350,3.817555,8.895657,-0.864994,-0.131027,-0.365918
1980-01-06T00:24:42.532027351Z,-2.185906,3.630807,9.216479,-0.827044,-0.125967,-0.246609
1980-01-06T00:24:42.552049538Z,-2.251747,3.356671,9.661801,-0.789360,0.041146,-0.143278
1980-01-06T00:24:42.571912246Z,-2.268506,3.289633,9.513360,-0.935701,0.267781,-0.136886
1980-01-06T00:24:42.591550476Z,-2.109292,3.387795,9.757569,-0.657667,0.075501,-0.139017
1980-01-06T00:24:42.611425007Z,-2.220622,2.570175,9.791088,-0.920121,-0.121174,0.039947
1980-01-06T00:24:42.631330163Z,-2.280477,2.598906,10.183737,-1.042493,-0.012384,0.142213
1980-01-06T00:24:42.651278653Z,-2.309207,2.470816,10.356119,-0.881506,0.170309,0.206128
1980-01-06T00:24:42.671069017Z,-2.030283,2.169147,10.585963,-0.867258,0.303067,0.284958
1980-01-06T00:24:42.750553236Z,-2.746149,1.823185,10.375273,-0.825446,-0.113317,0.544882
1980-01-06T00:24:42.770474069Z,-2.434903,1.938106,10.686520,-0.722648,0.054462,0.638626
1980-01-06T00:24:42.790269798Z,-2.372654,1.734599,10.672154,-0.658732,0.211588,0.719586
1980-01-06T00:24:42.810173028Z,-2.188300,1.547851,10.705673,-0.612527,0.149670,0.819720
1980-01-06T00:24:42.830034746Z,-1.965640,0.921768,10.911574,-0.676975,0.162719,0.918790
1980-01-06T00:24:42.869733965Z,-1.651999,1.309628,11.189301,-0.644751,0.052997,0.945421
1980-01-06T00:24:42.889616153Z,-1.868674,0.690727,11.107899,-0.577639,-0.132625,1.029577
1980-01-06T00:24:42.909479121Z,-1.847127,0.310049,11.299435,-0.598944,-0.042744,1.088167
1980-01-06T00:24:42.929551100Z,-1.732205,0.147243,11.409568,-0.600942,0.052331,1.141430
1980-01-06T00:24:42.949216986Z,-1.583764,-0.147243,11.687296,-0.539955,0.035154,1.241565
1980-01-06T00:24:42.969313340Z,-1.240196,-0.248997,11.988965,-0.442617,0.102532,1.252217
1980-01-06T00:24:42.989184486Z,-0.951695,-0.296881,12.089521,-0.345279,0.059122,1.235173
1980-01-06T00:24:43.009041153Z,-0.852336,-0.545878,11.792641,-0.272574,-0.064448,1.212803
1980-01-06T00:24:43.028708236Z,-1.059434,-0.648829,11.658566,-0.238086,-0.113717,1.215998
1980-01-06T00:24:43.048602871Z,-1.090559,-0.661997,11.696873,-0.192813,-0.066313,1.237304
1980-01-06T00:24:43.068437715Z,-0.912191,-0.620098,11.784261,-0.139416,-0.011318,1.258076
1980-01-06T00:24:43.088348132Z,-0.699107,-0.537498,12.028469,-0.065247,0.002796,1.277251
1980-01-06T00:24:43.108289173Z,-0.567426,-0.664391,12.368446,0.030360,0.027697,1.269794
1980-01-06T00:24:43.128090736Z,-0.080206,-0.681150,12.708423,0.066046,0.049535,1.212270
1980-01-06T00:24:43.187694277Z,-0.119710,-0.399832,12.052411,0.174836,-0.221042,1.064198
1980-01-06T00:24:43.207555580Z,-0.022745,-0.489614,11.899182,0.303067,-0.135688,1.054611
1980-01-06T00:24:43.227418861Z,0.203507,-0.895431,11.927913,0.402936,-0.069508,1.000282
1980-01-06T00:24:43.247305996Z,0.454898,-1.077391,11.817780,0.428502,-0.197606,0.858602
1980-01-06T00:24:43.267370684Z,0.247800,-0.974440,11.688493,0.403735,-0.564856,0.806404
1980-01-06T00:24:43.287268340Z,0.172383,-0.820014,11.276690,0.450074,-0.832370,0.720118
1980-01-06T00:24:43.307123496Z,0.148441,-0.654814,10.817003,0.444881,-0.851279,0.661529
1980-01-06T00:24:43.346645892Z,0.679953,-0.387861,10.606314,0.552472,-0.541686,0.656202
1980-01-06T00:24:43.366524746Z,0.928950,-0.532710,10.611102,0.633432,-0.518384,0.628505
1980-01-06T00:24:43.386382663Z,1.283292,-0.604536,10.845734,0.781371,-0.714659,0.519849
1980-01-06T00:24:43.406315475Z,1.198298,-0.711078,10.376471,0.671782,-0.842890,0.430366
1980-01-06T00:24:43.426183704Z,1.159991,-0.550666,10.232818,0.646748,-1.040629,0.402670
1980-01-06T00:24:43.446005111Z,1.234211,-0.417788,9.878476,0.606534,-0.998951,0.348341
1980-01-06T00:24:43.485722507Z,1.997961,-0.015562,9.639056,0.728374,-0.671915,0.199204
1980-01-06T00:24:43.505635059Z,2.296039,0.000000,9.418790,0.753141,-0.624511,0.131027
1980-01-06T00:24:43.525513600Z,2.515109,0.140061,9.236830,0.786963,-0.585362,0.038349
1980-01-06T00:24:43.545390059Z,2.681506,0.069432,9.145850,0.794287,-0.596281,-0.073503
1980-01-06T00:24:43.565223340Z,2.770091,0.216675,8.858546,0.773248,-0.634631,-0.194943
1980-01-06T00:24:43.585097923Z,2.724602,0.468066,8.604761,0.757536,-0.662194,-0.290817
1980-01-06T00:24:43.644683027Z,2.677915,1.230620,8.101978,0.706936,-0.542485,-0.447411
1980-01-06T00:24:43.664575684Z,2.803610,1.756147,7.814674,0.636628,-0.525708,-0.531567
1980-01-06T00:24:43.684429798Z,2.700660,1.977611,7.211336,0.588958,-0.660730,-0.544350
1980-01-06T00:24:43.704312871Z,2.937685,2.105700,8.010999,0.439821,-0.611328,-0.515588
1980-01-06T00:24:43.724185579Z,3.102885,2.306813,7.862558,0.368847,-0.446612,-0.595482
1980-01-06T00:24:43.744056673Z,3.209427,2.328361,8.025364,0.304133,-0.393215,-0.647680
1980-01-06T00:24:43.783803496Z,3.161543,2.219425,7.650671,0.285757,-0.515188,-0.760598
1980-01-06T00:24:43.803684381Z,3.132813,2.045845,7.636306,0.260990,-0.523311,-0.798948
1980-01-06T00:24:43.823601413Z,3.082535,2.135628,7.650671,0.241948,-0.473243,-0.864994
1980-01-06T00:24:43.843387663Z,3.116054,2.185906,7.698555,0.225836,-0.421179,-0.938497
1980-01-06T00:24:43.863271308Z,3.035848,2.403779,7.631518,0.232627,-0.367383,-1.017327
1980-01-06T00:24:43.883154902Z,2.894590,2.579752,7.530962,0.247008,-0.336357,-1.071655
1980-01-06T00:24:43.942756048Z,2.330755,2.950854,6.999449,0.260457,-0.264851,-1.170725
1980-01-06T00:24:43.962615215Z,2.188300,3.217807,6.779182,0.208126,-0.188285,-1.193095
1980-01-06T00:24:43.982482715Z,2.050634,3.500323,6.673837,0.149936,-0.176434,-1.196291
1980-01-06T00:24:44.002343027Z,1.879448,3.530250,6.697779,0.093477,-0.193745,-1.170725
1980-01-06T00:24:44.022290527Z,1.684321,3.518279,6.621165,0.052198,-0.117046,-1.203748
1980-01-06T00:24:44.042109798Z,1.640028,3.951630,6.625953,-0.015579,-0.117578,-1.206944
1980-01-06T00:24:44.101684017Z,0.748188,3.719392,5.907693,-0.150468,-0.075767,-1.203748
1980-01-06T00:24:44.121596725Z,0.456095,3.806781,5.735310,-0.240217,-0.054994,-1.166464
1980-01-06T00:24:44.141460423Z,0.172383,4.333505,5.773617,-0.356464,-0.008256,-1.132375
1980-01-06T00:24:44.161309329Z,0.081403,4.674679,6.151901,-0.474042,-0.020773,-1.081242
1980-01-06T00:24:44.181384329Z,-0.031125,4.584896,6.439206,-0.554336,-0.104130,-1.025849
1980-01-06T00:24:44.201264381Z,-0.379481,4.276044,6.587646,-0.589091,-0.145275,-0.984303
1980-01-06T00:24:44.260680423Z,-0.664391,4.068946,7.564480,-0.869921,0.022237,-0.738228
1980-01-06T00:24:44.280505735Z,-0.711078,4.126407,7.827842,-0.840493,0.149004,-0.683899
1980-01-06T00:24:44.300419069Z,-0.709881,4.232949,8.201338,-0.832370,0.189883,-0.611461
1980-01-06T00:24:44.320277090Z,-0.769736,3.847482,8.378509,-0.793355,0.233825,-0.535828
1980-01-06T00:24:44.340152037Z,-0.815226,3.523068,8.761581,-0.769520,0.341284,-0.519849
1980-01-06T00:24:44.360047090Z,-0.934936,3.678691,8.881291,-0.724645,0.372576,-0.533697
1980-01-06T00:24:44.399764381Z,-1.306037,3.063381,8.962694,-0.686163,0.216115,-0.410126
1980-01-06T00:24:44.419672402Z,-1.154005,3.063381,9.044097,-0.679372,0.251669,-0.369646
1980-01-06T00:24:44.439508235Z,-1.177947,3.134010,8.675390,-0.599344,0.355399,-0.363255
1980-01-06T00:24:44.459374589Z,-1.191115,3.107674,8.407239,-0.587227,0.358328,-0.331297
1980-01-06T00:24:44.479238131Z,-1.149217,2.595315,8.632295,-0.679239,0.327569,-0.282295
1980-01-06T00:24:44.499080319Z,-1.213860,2.683900,9.058462,-0.821585,0.320777,-0.242880
1980-01-06T00:24:44.519000006Z,-1.808819,2.852691,8.584411,-0.660730,0.215450,-0.199204
1980-01-06T00:24:44.558733287Z,-1.323994,2.261323,9.790190,-0.893889,0.430366,0.018109
1980-01-06T00:24:44.578594173Z,-1.413776,2.511518,9.895535,-0.756470,0.526373,0.033023
1980-01-06T00:24:44.598458548Z,-1.823185,2.626439,10.273819,-0.630636,0.422776,0.092678
1980-01-06T00:24:44.618382975Z,-2.091335,2.343924,10.154109,-0.601208,0.319579,0.103331
1980-01-06T00:24:44.638220006Z,-2.343924,2.002750,9.617807,-0.613991,0.182959,0.155528
1980-01-06T00:24:44.658055631Z,-2.200271,2.106898,9.708787,-0.606801,0.062851,0.318514
1980-01-06T00:24:44.717688444Z,-1.447295,2.026692,10.786178,-0.514256,0.381764,0.477238
1980-01-06T00:24:44.737549381Z,-1.710657,1.936909,10.498874,-0.288021,0.197606,0.513457
1980-01-06T00:24:44.757419537Z,-1.811214,1.003170,10.436625,-0.379101,0.131560,0.605070
1980-01-06T00:24:44.777324589Z,-1.517924,1.101333,10.407894,-0.486026,0.311057,0.600809
1980-01-06T00:24:44.797342194Z,-1.238999,1.398214,10.403106,-0.437823,0.364586,0.601874
1980-01-06T00:24:44.817074381Z,-0.973243,1.312023,10.752659,-0.404800,0.305331,0.629571
1980-01-06T00:24:44.856754589Z,-0.976834,0.950498,10.407894,-0.234225,-0.010253,0.609331
1980-01-06T00:24:44.876652037Z,-0.942118,0.094571,10.331280,-0.342083,-0.045673,0.691356
1980-01-06T00:24:44.896508548Z,-0.764947,0.227449,10.412683,-0.421711,0.191881,0.632767
1980-01-06T00:24:44.916405371Z,-0.539892,0.641646,10.599430,-0.398009,0.278433,0.609331
1980-01-06T00:24:44.936293391Z,-0.561440,0.294487,10.676044,-0.331963,0.251535,0.599743
1980-01-06T00:24:44.956139798Z,-0.168791,0.395043,11.006445,-0.262321,0.247940,0.535828
1980-01-06T00:24:44.976012662Z,-0.137667,0.620098,10.790966,-0.173372,0.121041,0.506000
1980-01-06T00:24:45.015763079Z,-0.657208,-0.099359,10.632949,-0.130495,0.030893,0.451672
1980-01-06T00:24:45.035625110Z,-0.604536,-0.088585,10.489297,-0.155528,0.074835,0.373908
1980-01-06T00:24:45.055485891Z,-0.490811,-0.022745,10.685621,-0.203465,0.046738,0.429301
1980-01-06T00:24:45.075348600Z,-0.134075,-0.009577,10.776601,-0.180962,0.178565,0.350472
1980-01-06T00:24:45.095215423Z,-0.028730,-0.041899,10.790966,-0.072172,0.293347,0.222640
1980-01-06T00:24:45.115130995Z,-0.240617,-0.092177,10.776601,-0.041146,0.244877,0.173638
1980-01-06T00:24:45.154462037Z,-0.694318,-0.305261,10.910676,-0.040347,0.046206,0.156594
1980-01-06T00:24:45.174696100Z,-0.463278,-0.137667,10.666468,-0.074835,0.007723,0.145941
1980-01-06T00:24:45.194554902Z,-0.423774,-0.069432,10.532393,-0.025966,-0.047404,0.133158
1980-01-06T00:24:45.214474693Z,-0.523133,-0.268151,10.221147,-0.004661,-0.049135,0.108657
1980-01-06T00:24:45.234312766Z,-0.574608,-0.405817,10.192416,-0.175369,-0.057524,0.118244
1980-01-06T00:24:45.254151048Z,-0.446519,-0.180762,10.498874,-0.135555,-0.157925,0.069242
1980-01-06T00:24:45.274030735Z,-0.695516,0.037110,10.139744,-0.155662,-0.255930,0.087352
1980-01-06T00:24:45.313788964Z,-0.675165,-0.256180,9.890746,-0.173771,-0.127033,0.049002
1980-01-06T00:24:45.333638339Z,-0.629675,-0.076614,9.852439,-0.183358,-0.147539,0.040480
1980-01-06T00:24:45.353534381Z,-0.790087,-0.137667,9.818920,-0.137552,-0.170975,0.025566
1980-01-06T00:24:45.373396777Z,-0.757765,-0.079009,9.617807,-0.113717,-0.155395,-0.004261
1980-01-06T00:24:45.393256464Z,-0.766145,-0.098162,9.483732,-0.079762,-0.223173,0.013848
1980-01-06T00:24:45.413215058Z,-0.928950,-0.263362,9.253889,-0.124103,-0.211854,0.027697
1980-01-06T00:24:45.433033183Z,-0.848745,-0.149638,9.263466,-0.143278,-0.125701,0.015979
1980-01-06T00:24:45.472764693Z,-0.572214,0.010774,10.154109,-0.165249,0.001332,0.026632
1980-01-06T00:24:45.492595006Z,0.039504,0.441730,16.867451,-1.284308,-1.141563,0.454868
1980-01-06T00:24:45.512505214Z,-1.077391,0.769736,11.006445,0.290684,-0.793355,0.014914
1980-01-06T00:24:45.532380422Z,-0.397437,-0.403423,9.732729,0.115714,-0.198805,-0.094808
1980-01-06T00:24:45.552303391Z,-0.088585,-0.543484,9.924265,0.004661,-0.225969,0.028762
1980-01-06T00:24:45.572111933Z,-0.434548,-0.098162,9.670480,-0.076566,-0.291350,0.039415
1980-01-06T00:24:45.631741672Z,-0.945710,-0.803255,13.869909,0.004394,-0.407330,0.133158
1980-01-06T00:24:45.651576204Z,0.909797,-0.497994,9.579500,-0.017311,0.004128,0.003196
1980-01-06T00:24:45.671440735Z,-0.180762,-0.275333,9.895535,-0.010253,0.008389,-0.018109
1980-01-06T00:24:45.691378547Z,-0.084994,-0.191536,9.742306,-0.013848,-0.006392,-0.011718
1980-01-06T00:24:45.711203495Z,-0.055067,-0.199916,9.761459,0.000266,-0.015180,-0.012783
1980-01-06T00:24:45.731063391Z,-0.094571,-0.112527,9.700109,0.021172,-0.012384,-0.005859
1980-01-06T00:24:45.790646829Z,0.009577,-0.240617,9.747993,-0.020107,-0.009055,-0.015446
1980-01-06T00:24:45.810572870Z,-0.017957,-0.253785,9.728839,-0.009454,-0.009854,-0.019707
1980-01-06T00:24:45.830408495Z,-0.087388,-0.143652,9.920375,0.015846,0.000932,-0.020773
1980-01-06T00:24:45.850251047Z,-0.007183,-0.086191,9.633071,0.104795,-0.029561,-0.013316
1980-01-06T00:24:45.870127349Z,0.084994,-0.501585,9.652225,0.018642,-0.009188,-0.014381
1980-01-06T00:24:45.890020266Z,-0.108936,-0.402226,9.671378,-0.009454,-0.005726,-0.014381
1980-01-06T00:24:45.929742245Z,0.000000,-0.196325,9.767146,-0.010386,-0.007057,-0.014381
1980-01-06T00:24:45.949675162Z,-0.045490,-0.173580,9.762358,-0.004394,-0.007856,-0.014381
1980-01-06T00:24:45.969473026Z,-0.037110,-0.184354,9.762358,-0.002264,-0.007723,-0.014381
1980-01-06T00:24:45.989396308Z,-0.044293,-0.205901,9.747993,-0.001198,-0.009055,-0.015446
1980-01-06T00:24:46.009250318Z,-0.035913,-0.217872,9.747993,-0.003862,-0.007856,-0.014381
1980-01-06T00:24:46.029098808Z,-0.023942,-0.210690,9.738416,-0.003462,-0.009188,-0.013848
1980-01-06T00:24:46.088705735Z,-0.039504,-0.226252,9.743204,-0.002530,-0.007590,-0.013848
1980-01-06T00:24:46.108595318Z,-0.041899,-0.232238,9.747993,-0.002264,-0.008522,-0.014914
1980-01-06T00:24:46.128489068Z,-0.013168,-0.215478,9.747993,-0.001065,-0.008389,-0.014914
1980-01-06T00:24:46.148368078Z,-0.021548,-0.209493,9.743204,-0.002796,-0.008522,-0.014914
1980-01-06T00:24:46.168220683Z,-0.037110,-0.214281,9.747993,-0.002796,-0.008788,-0.013848
1980-01-06T00:24:46.188075318Z,-0.047884,-0.215478,9.733627,-0.003063,-0.009587,-0.014914
1980-01-06T00:24:46.208031672Z,-0.033519,-0.222661,9.738416,-0.001598,-0.007989,-0.013848
1980-01-06T00:24:46.247665005Z,-0.021548,-0.223858,9.733627,-0.000799,-0.009587,-0.013848
1980-01-06T00:24:46.267544224Z,-0.027533,-0.222661,9.752781,-0.000000,-0.008389,-0.013848
1980-01-06T00:24:46.287396933Z,-0.021548,-0.221464,9.743204,-0.001198,-0.008522,-0.013848
1980-01-06T00:24:46.307304745Z,-0.026336,-0.217872,9.728839,-0.000266,-0.008522,-0.013848
1980-01-06T00:24:46.327171724Z,-0.038307,-0.199916,9.752781,-0.001731,-0.009188,-0.013848
1980-01-06T00:24:46.347023964Z,-0.031125,-0.203507,9.738416,0.001065,-0.007590,-0.013848
1980-01-06T00:24:46.386768026Z,-0.028730,-0.205901,9.743204,-0.000666,-0.008922,-0.013848
1980-01-06T00:24:46.406650474Z,-0.027533,-0.213084,9.743204,-0.001465,-0.007989,-0.013848
1980-01-06T00:24:46.426504068Z,-0.025139,-0.222661,9.728839,-0.001465,-0.007989,-0.013848
1980-01-06T00:24:46.446359120Z,-0.031125,-0.217872,9.747993,-0.001997,-0.009188,-0.013848
1980-01-06T00:24:46.466307245Z,-0.038307,-0.191536,9.757569,-0.002929,-0.008655,-0.013848
1980-01-06T00:24:46.486105995Z,-0.028730,-0.186748,9.747394,-0.002264,-0.008123,-0.013848
1980-01-06T00:24:46.545758495Z,-0.043096,-0.239420,9.713875,-0.001065,-0.007856,-0.013848
1980-01-06T00:24:46.565613026Z,-0.040701,-0.210690,9.728839,-0.000799,-0.007723,-0.013848
1980-01-06T00:24:46.585453287Z,-0.029928,-0.184354,9.724051,-0.001065,-0.008389,-0.014914
1980-01-06T00:24:46.605322766Z,-0.026336,-0.203507,9.738416,-0.002929,-0.009055,-0.013848
1980-01-06T00:24:46.625236672Z,-0.017957,-0.213084,9.743204,-0.002397,-0.007989,-0.013848
1980-01-06T00:24:46.645065787Z,-0.032322,-0.209493,9.733627,-0.003862,-0.007856,-0.013848
1980-01-06T00:24:46.704903391Z,-0.029928,-0.181959,9.728839,-0.004394,-0.008522,-0.014914
1980-01-06T00:24:46.724568495Z,-0.014365,-0.205901,9.728839,-0.003196,-0.008123,-0.013848
1980-01-06T00:24:46.744436724Z,-0.014365,-0.202310,9.724051,-0.002663,-0.007590,-0.013848
1980-01-06T00:24:46.764324953Z,-0.045490,-0.226252,9.733627,-0.004794,-0.008389,-0.014914
1980-01-06T00:24:46.784175578Z,-0.041899,-0.226252,9.714474,-0.003196,-0.007989,-0.013848
1980-01-06T00:24:46.804053495Z,-0.041899,-0.221464,9.719262,-0.002530,-0.009454,-0.014914
1980-01-06T00:24:46.843985891Z,-0.026336,-0.201113,9.714474,-0.004261,-0.007856,-0.014381
1980-01-06T00:24:46.863781724Z,-0.014365,-0.207098,9.709685,-0.002663,-0.007723,-0.013316
1980-01-06T00:24:46.883507609Z,-0.032322,-0.214281,9.728839,-0.003063,-0.008655,-0.014381
1980-01-06T00:24:46.903401307Z,-0.070629,-0.225055,9.676167,-0.001198,-0.008389,-0.015446
1980-01-06T00:24:46.923272453Z,-0.074220,-0.223858,9.618706,0.000666,-0.008788,-0.014381
1980-01-06T00:24:46.943332089Z,0.009577,-0.207098,9.762358,-0.000533,-0.008788,-0.014381
1980-01-06T00:24:47.022657974Z,-0.053870,-0.198719,9.738416,-0.002264,-0.008522,-0.014381
