timestamp,accel_x,accel_y,accel_z,gyro_x,gyro_y,gyro_z
1980-01-06T00:08:20.005856215Z,-0.112527,-0.222661,9.800665,0.000000,0.000000,-0.000133
1980-01-06T00:08:20.025650017Z,-0.075417,-0.173580,9.805453,0.035420,0.183092,-0.322908
1980-01-06T00:08:20.045476632Z,0.017957,-0.022745,9.742905,-0.009055,-0.006924,-0.002131
1980-01-06T00:08:20.064724913Z,-0.013168,-0.061052,9.786000,0.002264,-0.008922,-0.013848
1980-01-06T00:08:20.085125746Z,-0.050278,-0.203507,9.733328,0.004661,-0.009587,-0.014914
1980-01-06T00:08:20.144839705Z,-0.038307,-0.092177,9.749189,-0.003462,-0.008123,-0.014381
1980-01-06T00:08:20.164692152Z,-0.025139,-0.117316,9.730036,-0.001065,-0.007457,-0.015446
1980-01-06T00:08:20.184437621Z,-0.026336,-0.131681,9.742605,-0.001864,-0.007457,-0.015446
1980-01-06T00:08:20.204295486Z,-0.007183,-0.150835,9.742605,-0.003063,-0.009321,-0.014381
1980-01-06T00:08:20.224203923Z,-0.045490,-0.140061,9.737817,-0.003595,-0.006924,-0.013316
1980-01-06T00:08:20.244023455Z,-0.064643,-0.110133,9.737817,-0.002663,-0.007590,-0.014381
1980-01-06T00:08:20.283765798Z,-0.037110,-0.136469,9.728240,-0.002929,-0.007590,-0.014381
1980-01-06T00:08:20.303693715Z,-0.011971,-0.126893,9.733028,-0.002530,-0.008389,-0.015446
1980-01-06T00:08:20.323509704Z,-0.032322,-0.128090,9.721656,-0.002796,-0.007856,-0.013848
1980-01-06T00:08:20.343354861Z,-0.037110,-0.135272,9.728839,-0.002264,-0.006791,-0.013316
1980-01-06T00:08:20.363284704Z,-0.049081,-0.123301,9.724051,-0.002397,-0.006658,-0.014381
1980-01-06T00:08:20.383110329Z,-0.033519,-0.112527,9.714474,-0.002796,-0.007590,-0.014381
1980-01-06T00:08:20.442717621Z,-0.033519,-0.134075,9.733028,-0.001731,-0.006791,-0.014381
1980-01-06T00:08:20.462598298Z,-0.026336,-0.112527,9.737817,-0.001864,-0.007590,-0.014381
1980-01-06T00:08:20.482447048Z,-0.045490,-0.107739,9.728240,-0.002663,-0.006791,-0.014381
1980-01-06T00:08:20.502298611Z,0.014365,-0.055067,9.689933,-0.009987,-0.003196,-0.015446
1980-01-06T00:08:20.522214496Z,1.064223,-1.194707,7.899070,-0.093743,0.021172,0.035686
1980-01-06T00:08:20.542067934Z,-0.116119,-0.389058,9.752182,0.028096,0.020107,-0.021838
1980-01-06T00:08:20.581833350Z,-0.128090,-0.318429,9.910199,0.088284,-0.007856,-0.026099
1980-01-06T00:08:20.601653871Z,0.225055,0.351948,9.742605,-0.012251,0.004394,-0.025034
1980-01-06T00:08:20.621542100Z,0.332794,-0.075417,9.780912,-0.076965,0.028363,-0.032491
1980-01-06T00:08:20.641385486Z,-0.876278,-0.537498,9.766547,0.031958,-0.017976,-0.041013
1980-01-06T00:08:20.661286944Z,-0.532710,-0.501585,9.867104,0.358195,-0.092545,-0.047404
1980-01-06T00:08:20.681109548Z,-0.147243,0.945710,10.793061,0.867657,0.083224,-0.134756
1980-01-06T00:08:20.701000017Z,-0.083797,0.539892,11.816283,0.780971,0.596814,-0.049002
1980-01-06T00:08:20.740717152Z,0.741005,0.493206,12.132318,0.773514,0.309060,-0.129962
1980-01-06T00:08:20.760631579Z,0.322020,0.476446,11.509826,0.562326,-0.280031,-0.053263
1980-01-06T00:08:20.780462725Z,0.005986,0.865504,11.203367,0.408662,-0.461792,0.018109
1980-01-06T00:08:20.800311527Z,-0.063446,1.004368,10.438720,0.307595,-0.347942,-0.005859
1980-01-06T00:08:20.820196683Z,-0.074220,0.706290,9.533711,0.176701,-0.111320,-0.060187
1980-01-06T00:08:20.840068246Z,-0.131681,1.025915,10.175357,0.078829,0.030626,-0.069775
1980-01-06T00:08:20.879805798Z,-0.252588,0.981623,9.742605,0.037417,-0.141281,-0.003728
1980-01-06T00:08:20.899681319Z,-0.253785,0.758962,9.507974,0.060720,-0.206794,-0.000533
1980-01-06T00:08:20.919551579Z,-0.417788,0.755371,9.220670,-0.014914,-0.182693,0.006924
1980-01-06T00:08:20.939414600Z,-0.579397,0.676362,8.832808,-0.056592,-0.150335,0.032491
1980-01-06T00:08:20.959327777Z,-0.269348,0.790087,8.933365,-0.029694,-0.114383,0.011185
1980-01-06T00:08:20.979114808Z,-0.248997,0.997185,9.235035,0.029028,-0.182959,0.012251
1980-01-06T00:08:21.038762465Z,-0.514753,0.700304,8.763975,0.069242,-0.061253,0.068177
1980-01-06T00:08:21.058595485Z,-0.554258,0.997185,8.869320,0.023436,0.046738,0.089482
1980-01-06T00:08:21.078491423Z,-0.846350,1.219846,9.041702,0.038616,0.132758,0.096939
1980-01-06T00:08:21.098353558Z,-1.004368,1.218649,9.273342,0.184690,0.092944,0.177366
1980-01-06T00:08:21.118247308Z,-1.412579,1.189918,9.196728,-0.086153,0.204397,0.266849
1980-01-06T00:08:21.138063298Z,-1.557428,1.417367,9.148843,-0.159656,0.239684,0.329699
1980-01-06T00:08:21.157949392Z,-1.577779,1.295263,9.507974,-0.292548,0.215183,0.439421
1980-01-06T00:08:21.177792412Z,-1.583764,1.659182,9.642049,-0.367516,0.205995,0.509729
1980-01-06T00:08:21.197679756Z,-1.721431,1.496376,9.814431,-0.366983,0.187620,0.613059
1980-01-06T00:08:21.217592985Z,-1.527501,1.534683,10.187927,-0.378035,0.155528,0.727042
1980-01-06T00:08:21.237414912Z,-1.306037,1.592144,10.408194,-0.337023,0.037284,0.783501
1980-01-06T00:08:21.257263037Z,-1.335965,1.236605,9.843162,-0.362456,-0.066446,0.837297
1980-01-06T00:08:21.277160121Z,-0.919373,1.419762,10.786477,-0.255530,-0.043809,0.799480
1980-01-06T00:08:21.316884131Z,-0.957681,0.993594,10.594941,-0.085754,-0.185090,0.911333
1980-01-06T00:08:21.336800694Z,-0.843956,0.926556,10.714651,-0.050733,-0.085354,0.897485
1980-01-06T00:08:21.356639235Z,-0.701501,1.185130,11.140819,-0.090281,-0.083756,0.959270
1980-01-06T00:08:21.376519912Z,-0.700304,0.835576,11.501745,-0.027431,-0.002796,0.868722
1980-01-06T00:08:21.396343871Z,-0.167594,0.970849,11.453861,0.105861,0.084023,0.852743
1980-01-06T00:08:21.416218037Z,0.663194,0.620098,11.386824,0.274305,-0.076699,0.866592
1980-01-06T00:08:21.436085121Z,1.162385,0.452504,11.643901,0.395745,-0.209058,0.882038
1980-01-06T00:08:21.475853194Z,1.080982,0.657208,11.959935,0.506000,-0.306263,0.834101
1980-01-06T00:08:21.495764392Z,1.449689,0.693121,12.229582,0.562193,-0.342083,0.845287
1980-01-06T00:08:21.515558454Z,1.665167,0.381875,11.806706,0.680703,-0.419847,0.778708
1980-01-06T00:08:21.535420746Z,1.827973,0.265756,11.204864,0.675244,-0.576308,0.713194
1980-01-06T00:08:21.555318298Z,1.774103,0.038307,12.579136,0.812397,-0.507199,0.605602
1980-01-06T00:08:21.575203454Z,1.988384,-0.161609,11.722012,0.692288,-0.735032,0.627973
1980-01-06T00:08:21.595045694Z,2.056619,-0.027533,11.089942,0.653140,-0.933570,0.554470
1980-01-06T00:08:21.634784079Z,2.434903,0.368707,10.922348,0.859002,-0.829707,0.440486
1980-01-06T00:08:21.654649183Z,2.782062,0.310049,10.146626,0.957938,-0.702808,0.339286
1980-01-06T00:08:21.674506579Z,3.159149,0.233435,9.921572,0.945688,-0.778175,0.257261
1980-01-06T00:08:21.694383923Z,3.566164,0.137667,10.639832,0.871386,-1.011468,0.126234
1980-01-06T00:08:21.714292985Z,2.862268,0.057461,10.516531,0.692288,-1.334109,0.126766
1980-01-06T00:08:21.734108194Z,2.850297,0.023942,9.745598,0.980176,-1.204280,-0.129962
1980-01-06T00:08:21.773831371Z,3.147178,0.050278,9.123106,0.896819,-0.946087,-0.243945
1980-01-06T00:08:21.793770381Z,3.526659,0.108936,8.567651,0.934769,-0.875913,-0.380299
1980-01-06T00:08:21.813591162Z,4.058172,0.098162,8.227674,1.017992,-0.992959,-0.534762
1980-01-06T00:08:21.833445016Z,4.371812,0.074220,7.779360,0.953810,-1.072720,-0.678040
1980-01-06T00:08:21.853288037Z,4.460398,0.183156,6.912659,0.965262,-0.999750,-0.831438
1980-01-06T00:08:21.873167933Z,4.590882,0.482432,6.299743,1.069658,-0.655670,-1.048752
1980-01-06T00:08:21.893046423Z,4.282030,0.702698,5.801749,1.047687,-0.435160,-1.181910
1980-01-06T00:08:21.952643350Z,3.087323,1.203086,4.302979,0.369247,-0.466319,-1.382179
1980-01-06T00:08:21.972521735Z,2.713828,1.715446,4.030040,0.221042,-0.394813,-1.372592
1980-01-06T00:08:21.992379860Z,2.470816,2.007538,3.661333,0.161521,-0.178165,-1.409876
1980-01-06T00:08:22.012257777Z,2.310405,2.396596,3.876811,0.054195,-0.076300,-1.467401
1980-01-06T00:08:22.032151423Z,1.971625,2.748544,4.130597,-0.091213,-0.110521,-1.531316
1980-01-06T00:08:22.052020277Z,1.273715,3.210624,4.403535,-0.203598,-0.213852,-1.544099
1980-01-06T00:08:22.071858193Z,0.426168,3.436877,4.414908,-0.242481,-0.183625,-1.549426
1980-01-06T00:08:22.091693923Z,-0.117316,3.604471,4.241029,-0.324106,-0.114250,-1.520131
1980-01-06T00:08:22.111616943Z,-0.642843,3.962404,4.410120,-0.419581,-0.135022,-1.426921
1980-01-06T00:08:22.131489391Z,-1.009156,4.252102,4.477157,-0.543551,0.082691,-1.356613
1980-01-06T00:08:22.151397673Z,-1.268927,4.859032,5.118803,-0.664724,0.176967,-1.316133
1980-01-06T00:08:22.171221735Z,-1.465251,5.109226,5.624877,-0.798948,-0.117978,-1.226118
1980-01-06T00:08:22.191070798Z,-1.703475,4.993108,5.645528,-0.893623,-0.216914,-1.147821
1980-01-06T00:08:22.230819912Z,-2.288857,5.591658,5.888240,-1.137968,0.028363,-0.893756
1980-01-06T00:08:22.250644131Z,-2.646790,5.840655,6.687903,-1.208275,0.121573,-0.737162
1980-01-06T00:08:22.270549027Z,-2.859874,5.595249,7.348403,-1.207743,0.227966,-0.607733
1980-01-06T00:08:22.290403766Z,-3.095703,5.421670,7.793725,-1.177382,0.297475,-0.476705
1980-01-06T00:08:22.310278766Z,-3.053804,5.348647,8.693945,-1.161670,0.313054,-0.265783
1980-01-06T00:08:22.330141110Z,-2.625242,5.799953,8.962095,-1.203748,0.533830,-0.068710
1980-01-06T00:08:22.369859443Z,-1.748964,6.143522,10.762535,-1.055143,0.618119,0.146474
1980-01-06T00:08:22.389723037Z,-1.877054,5.515044,10.811018,-0.974450,0.524642,0.258326
1980-01-06T00:08:22.409641058Z,-1.641225,5.149928,11.265916,-0.943690,0.410659,0.393615
1980-01-06T00:08:22.429472204Z,-1.352724,4.910508,11.399991,-0.910667,0.450340,0.555535
1980-01-06T00:08:22.449345537Z,-1.187524,4.654328,11.538856,-0.785499,0.616255,0.629038
1980-01-06T00:08:22.469205641Z,-0.355539,3.877410,11.716026,-0.662061,0.690823,0.643952
1980-01-06T00:08:22.489088193Z,-0.257377,3.308787,11.988965,-0.609996,0.572313,0.679106
1980-01-06T00:08:22.508977099Z,0.071826,2.802413,12.117653,-0.487758,0.492418,0.691889
1980-01-06T00:08:22.528793349Z,0.375890,2.383428,12.088923,-0.275903,0.465121,0.663127
1980-01-06T00:08:22.548655797Z,0.477643,1.865083,11.710639,-0.197340,0.359926,0.640756
1980-01-06T00:08:22.568591266Z,0.525527,1.654393,10.987590,-0.205995,0.258992,0.629038
1980-01-06T00:08:22.588432464Z,1.000776,1.273715,10.815207,-0.240750,0.252467,0.683367
1980-01-06T00:08:22.608258297Z,1.386243,1.115698,10.733805,-0.174437,0.363388,0.629038
1980-01-06T00:08:22.628141474Z,1.411382,0.843956,10.159196,-0.061119,0.320245,0.537425
1980-01-06T00:08:22.687821683Z,1.144428,0.806846,10.096947,-0.145941,0.127565,0.369114
1980-01-06T00:08:22.707598974Z,1.088165,0.902614,9.551069,-0.086952,0.111187,0.306263
1980-01-06T00:08:22.727487776Z,1.406593,0.828394,9.498397,-0.125967,0.132093,0.295611
1980-01-06T00:08:22.747336474Z,1.448492,0.881066,9.460090,-0.181095,0.193478,0.244478
1980-01-06T00:08:22.767222724Z,1.033098,0.925359,9.397840,-0.235024,0.121440,0.193345
1980-01-06T00:08:22.787088245Z,0.659603,0.930147,9.268852,-0.307462,-0.012517,0.151267
1980-01-06T00:08:22.826817047Z,0.317232,0.992397,9.153931,-0.341417,-0.103730,0.082025
1980-01-06T00:08:22.846688662Z,0.126893,0.975637,8.852262,-0.291216,0.005060,0.031958
1980-01-06T00:08:22.866575224Z,0.217872,0.944513,8.641572,-0.266582,0.081093,-0.025566
1980-01-06T00:08:22.886428662Z,0.065841,0.969652,8.550592,-0.303866,0.033289,-0.025566
1980-01-06T00:08:22.906301526Z,0.080206,0.913388,8.560169,-0.374307,0.093876,-0.012783
1980-01-06T00:08:22.926131891Z,0.092177,0.928950,8.240842,-0.314519,0.162453,-0.099602
1980-01-06T00:08:22.946043141Z,-0.040701,0.567426,7.311892,-0.228233,0.011185,-0.127299
1980-01-06T00:08:22.985751735Z,-0.689530,1.007959,7.971195,-0.083623,-0.028363,-0.052198
1980-01-06T00:08:23.005657047Z,-0.509965,0.827197,8.272566,-0.030094,0.227301,-0.161387
1980-01-06T00:08:23.025477516Z,0.009577,0.630872,8.143278,-0.175103,0.221175,-0.152865
1980-01-06T00:08:23.045388089Z,0.237026,0.883460,8.880692,-0.391351,0.061386,-0.084688
1980-01-06T00:08:23.065226943Z,-0.130484,1.304840,9.374197,-0.420113,-0.049135,-0.017044
1980-01-06T00:08:23.085098610Z,-0.627281,1.155202,9.704897,-0.394547,-0.117845,0.081493
1980-01-06T00:08:23.124830485Z,-0.105345,1.176750,10.471041,-0.560195,0.069109,-0.140082
1980-01-06T00:08:23.144725485Z,-0.202310,1.037886,10.485406,-0.533164,-0.311456,-0.017577
1980-01-06T00:08:23.164558922Z,-1.290475,0.962469,11.390414,-0.501739,-0.321443,0.175236
1980-01-06T00:08:23.184457828Z,-0.536301,0.883460,11.907562,-0.125035,0.084688,-0.018642
1980-01-06T00:08:23.204301110Z,-0.356736,0.968455,11.917139,-0.122638,0.179630,-0.039947
1980-01-06T00:08:23.224158974Z,-0.669179,0.690727,11.184513,0.026498,-0.099336,0.002663
1980-01-06T00:08:23.244046891Z,-0.547075,0.985214,11.543644,-0.100135,-0.098670,0.060187
1980-01-06T00:08:23.283787672Z,-0.283713,0.354342,11.179127,-0.122905,-0.126234,0.085754
1980-01-06T00:08:23.303650537Z,-0.295684,0.506374,10.867880,-0.161254,-0.164051,0.029295
1980-01-06T00:08:23.323525224Z,-0.277727,0.377087,10.705074,-0.178298,-0.263919,0.090015
1980-01-06T00:08:23.343391526Z,-0.178368,0.542287,10.427347,-0.280564,-0.259791,0.207194
1980-01-06T00:08:23.363273974Z,-0.187945,0.573411,10.226234,-0.185090,-0.174836,0.240217
1980-01-06T00:08:23.383103714Z,0.014365,0.067038,9.891046,-0.154197,-0.065647,0.185888
1980-01-06T00:08:23.442695693Z,-0.099359,0.426168,9.814431,-0.288420,-0.346078,0.203998
1980-01-06T00:08:23.462567516Z,0.154426,0.013168,9.710882,-0.253266,-0.180030,0.141147
1980-01-06T00:08:23.482449443Z,0.289698,0.050278,9.581595,-0.209857,-0.112252,0.069775
1980-01-06T00:08:23.502340276Z,-0.221464,-0.028730,7.058106,-1.254880,1.600558,0.074036
1980-01-06T00:08:23.522177099Z,-0.493206,-1.783680,8.949526,0.015713,-0.013715,0.238086
1980-01-06T00:08:23.542062828Z,0.357933,-0.501585,9.538500,0.236888,0.065247,-0.099602
1980-01-06T00:08:23.581832620Z,-0.050278,0.213084,10.178649,-0.151134,0.032491,-0.022371
1980-01-06T00:08:23.601654443Z,0.114922,0.135272,9.503485,-0.201068,-0.011452,0.015979
1980-01-06T00:08:23.621531891Z,-0.138864,-0.307655,10.050858,-0.252734,0.036752,0.037817
1980-01-06T00:08:23.641388870Z,-0.047884,-0.165200,9.682152,-0.037417,-0.001598,0.031425
1980-01-06T00:08:23.661259078Z,-0.005986,-0.177171,9.709386,-0.023036,-0.015313,0.021305
1980-01-06T00:08:23.681188766Z,-0.032322,-0.232238,9.737817,0.014781,-0.011185,0.072971
1980-01-06T00:08:23.740740641Z,-0.083797,-0.268151,9.800066,0.073770,-0.025300,0.036752
1980-01-06T00:08:23.760618297Z,-0.221464,-0.021548,9.642348,0.081093,-0.031425,0.112918
1980-01-06T00:08:23.780530901Z,0.150835,0.083797,9.910798,-0.107592,0.021305,0.107059
1980-01-06T00:08:23.800312411Z,0.114922,-0.533907,9.376891,-0.021039,-0.000799,-0.012783
1980-01-06T00:08:23.820192255Z,0.021548,-0.008380,9.755175,0.021572,-0.005593,-0.014914
1980-01-06T00:08:23.840091005Z,-0.082600,-0.229843,9.750386,-0.021039,-0.003196,-0.013848
1980-01-06T00:08:23.879875432Z,-0.050278,-0.150835,9.716867,-0.012650,-0.007191,-0.014914
1980-01-06T00:08:23.899659286Z,-0.031125,-0.116119,9.761759,0.009188,-0.009188,-0.016512
1980-01-06T00:08:23.919574182Z,-0.051475,-0.158017,9.728240,-0.005992,-0.006924,-0.015446
1980-01-06T00:08:23.939390484Z,-0.062249,-0.142455,9.728240,0.003462,-0.009587,-0.015446
1980-01-06T00:08:23.959281109Z,-0.067038,-0.143652,9.737817,-0.004394,-0.008256,-0.014381
1980-01-06T00:08:23.979154755Z,-0.023942,-0.144849,9.747394,-0.000799,-0.008256,-0.015446
1980-01-06T00:08:23.999005901Z,-0.046687,-0.141258,9.733028,0.000266,-0.008389,-0.014381
1980-01-06T00:08:24.038747047Z,-0.046687,-0.124498,9.742605,-0.000000,-0.007989,-0.014381
1980-01-06T00:08:24.058620172Z,-0.041899,-0.130484,9.733028,-0.001598,-0.007856,-0.014381
1980-01-06T00:08:24.078529599Z,-0.053870,-0.130484,9.742605,-0.000133,-0.007723,-0.014381
1980-01-06T00:08:24.098318453Z,-0.039504,-0.149638,9.742605,-0.001731,-0.008123,-0.014381
1980-01-06T00:08:24.118271422Z,-0.035913,-0.162806,9.723452,0.000133,-0.008788,-0.014381
1980-01-06T00:08:24.138078661Z,-0.035913,-0.142455,9.728240,-0.001864,-0.008123,-0.014381
1980-01-06T00:08:24.177876005Z,-0.064643,-0.126893,9.733328,-0.001465,-0.008256,-0.013848
1980-01-06T00:08:24.197705015Z,-0.058658,-0.140061,9.733328,-0.000133,-0.007590,-0.013848
1980-01-06T00:08:24.217578870Z,-0.034716,-0.146046,9.733328,0.000799,-0.007723,-0.013848
1980-01-06T00:08:24.237402932Z,-0.043096,-0.144849,9.728539,-0.000266,-0.008123,-0.014914
1980-01-06T00:08:24.257278974Z,-0.037110,-0.146046,9.728539,0.000266,-0.007989,-0.013848
1980-01-06T00:08:24.277179963Z,-0.050278,-0.136469,9.720459,0.000799,-0.008522,-0.015446
1980-01-06T00:08:24.356654547Z,-0.035913,-0.150835,9.734824,0.000399,-0.008522,-0.015446
1980-01-06T00:08:24.376566682Z,-0.053870,-0.125696,9.734824,-0.000932,-0.008522,-0.015446
1980-01-06T00:08:24.396344911Z,-0.059855,-0.131681,9.739613,-0.002929,-0.008522,-0.015446
1980-01-06T00:08:24.416265640Z,-0.052672,-0.155623,9.730036,-0.006258,-0.007856,-0.014381
1980-01-06T00:08:24.436091578Z,-0.033519,-0.146046,9.734824,-0.000266,-0.006791,-0.014381
1980-01-06T00:08:24.475891109Z,-0.029928,-0.138864,9.733627,-0.001598,-0.006924,-0.013316
1980-01-06T00:08:24.495713505Z,-0.052672,-0.149638,9.728839,-0.002264,-0.007457,-0.015446
1980-01-06T00:08:24.515555328Z,-0.053870,-0.146046,9.728839,-0.001731,-0.007590,-0.014381
1980-01-06T00:08:24.535455120Z,-0.041899,-0.135272,9.747993,-0.002131,-0.007723,-0.014381
1980-01-06T00:08:24.555361578Z,-0.031125,-0.123301,9.738416,-0.001465,-0.007590,-0.014381
1980-01-06T00:08:24.575149807Z,-0.040701,-0.136469,9.728839,-0.002663,-0.007057,-0.014381
1980-01-06T00:08:24.595052255Z,-0.044293,-0.131681,9.738416,-0.003329,-0.007324,-0.014381
1980-01-06T00:08:24.634761057Z,-0.050278,-0.148441,9.728240,-0.003329,-0.007590,-0.014381
1980-01-06T00:08:24.654639026Z,-0.025139,-0.131681,9.742605,-0.003728,-0.007590,-0.014381
1980-01-06T00:08:24.674498609Z,-0.029928,-0.158017,9.723452,-0.003595,-0.006924,-0.014381
1980-01-06T00:08:24.694375380Z,-0.039504,-0.128090,9.723452,-0.004794,-0.006924,-0.014381
1980-01-06T00:08:24.714233140Z,-0.043096,-0.131681,9.747394,-0.004128,-0.007590,-0.014381
1980-01-06T00:08:24.734130536Z,-0.041899,-0.129287,9.742605,-0.006258,-0.007989,-0.014381
1980-01-06T00:08:24.754071838Z,-0.055067,-0.130484,9.747394,-0.005726,-0.006924,-0.014381
1980-01-06T00:08:24.793721578Z,-0.044293,-0.142455,9.728240,-0.007590,-0.006258,-0.015446
1980-01-06T00:08:24.813668192Z,-0.047884,-0.126893,9.733028,-0.006258,-0.008256,-0.014381
1980-01-06T00:08:24.833451317Z,-0.049081,-0.137667,9.733028,-0.005060,-0.009587,-0.014381
1980-01-06T00:08:24.853324859Z,-0.046687,-0.135272,9.744401,-0.005726,-0.007989,-0.014381
1980-01-06T00:08:24.873274859Z,-0.035913,-0.164003,9.728539,-0.003595,-0.007590,-0.013848
1980-01-06T00:08:24.893027463Z,-0.015562,-0.056264,9.667787,0.014514,-0.008922,-0.013316
1980-01-06T00:08:24.952685067Z,-0.044293,-0.142455,9.739613,-0.011718,-0.004927,-0.013316
1980-01-06T00:08:24.972560484Z,-0.050278,-0.107739,9.739613,-0.000133,-0.007723,-0.014381
1980-01-06T00:08:24.992427307Z,-0.058658,-0.171185,9.661502,-0.000000,-0.007057,-0.013848
1980-01-06T00:08:25.012264078Z,-0.039504,-0.191536,9.658210,0.002929,-0.007989,-0.014381
1980-01-06T00:08:25.032103140Z,-0.023942,-0.095768,9.816227,-0.005459,-0.006791,-0.014381
1980-01-06T00:08:25.051980796Z,-0.052672,-0.122104,9.739613,-0.000399,-0.006525,-0.014381
1980-01-06T00:08:25.091773921Z,-0.067038,-0.213084,9.575011,0.007324,-0.010386,-0.014381
