timestamp,accel_x,accel_y,accel_z,gyro_x,gyro_y,gyro_z
1980-01-06T00:09:23.607637232Z,-0.015562,-0.264559,9.727941,-0.000399,-0.002397,-0.014381
1980-01-06T00:09:23.627446607Z,-0.063446,-0.177171,9.694422,-0.003862,-0.007723,-0.014381
1980-01-06T00:09:23.647325774Z,-0.010774,-0.165200,9.708787,-0.002663,-0.008123,-0.014381
1980-01-06T00:09:23.667184524Z,-0.043096,-0.211887,9.703999,-0.000000,-0.005992,-0.014381
1980-01-06T00:09:23.687033326Z,-0.068235,-0.234632,9.684845,-0.002530,-0.006924,-0.014381
1980-01-06T00:09:23.726776816Z,-0.023942,-0.167594,9.747693,-0.003196,-0.006525,-0.014381
1980-01-06T00:09:23.746688587Z,-0.074220,-0.150835,9.728539,-0.003862,-0.006525,-0.014381
1980-01-06T00:09:23.766539993Z,-0.035913,-0.174777,9.718963,-0.003063,-0.008256,-0.014381
1980-01-06T00:09:23.786402909Z,-0.026336,-0.187945,9.728539,-0.001731,-0.008256,-0.014381
1980-01-06T00:09:23.806283430Z,-0.055067,-0.207098,9.709386,-0.001997,-0.008389,-0.014381
1980-01-06T00:09:23.826185305Z,-0.069432,-0.186748,9.696816,-0.001997,-0.008522,-0.014381
1980-01-06T00:09:23.865901920Z,-0.049081,-0.172383,9.720758,-0.000000,-0.007191,-0.015446
1980-01-06T00:09:23.885771399Z,-0.039504,-0.185551,9.692028,-0.002397,-0.006658,-0.014381
1980-01-06T00:09:23.905616451Z,-0.035913,-0.183156,9.696816,-0.001332,-0.006525,-0.013316
1980-01-06T00:09:23.925492649Z,-0.063446,-0.204704,9.720758,-0.001332,-0.006924,-0.014381
1980-01-06T00:09:23.945337336Z,-0.058658,-0.183156,9.728240,-0.002663,-0.008256,-0.014381
1980-01-06T00:09:23.965197336Z,-0.065841,-0.173580,9.718663,-0.000666,-0.008256,-0.015446
1980-01-06T00:09:23.985068118Z,-0.034716,-0.175974,9.718663,-0.002796,-0.008389,-0.014381
1980-01-06T00:09:24.024825774Z,-0.053870,-0.187945,9.720758,-0.001598,-0.008256,-0.014381
1980-01-06T00:09:24.044675514Z,-0.053870,-0.154426,9.725547,-0.001065,-0.007856,-0.014381
1980-01-06T00:09:24.065418691Z,-0.046687,-0.152032,9.739912,-0.001065,-0.007191,-0.015446
1980-01-06T00:09:24.084399316Z,-0.027533,-0.174777,9.715970,-0.001198,-0.006525,-0.014381
1980-01-06T00:09:24.104269993Z,-0.031125,-0.190339,9.692028,-0.003063,-0.008389,-0.014381
1980-01-06T00:09:24.124134472Z,-0.065841,-0.192733,9.706393,-0.002397,-0.007057,-0.014381
1980-01-06T00:09:24.144001868Z,-0.063446,-0.180762,9.718663,-0.001731,-0.008389,-0.014381
1980-01-06T00:09:24.163867701Z,-0.065841,-0.191536,9.723452,-0.001065,-0.007191,-0.014381
1980-01-06T00:09:24.183749628Z,-0.027533,-0.149638,9.713875,-0.002264,-0.007324,-0.015446
1980-01-06T00:09:24.203638743Z,0.187945,-0.913388,8.971672,0.053263,-0.018109,-0.011185
1980-01-06T00:09:24.223513274Z,-0.077812,-0.673968,9.687240,-0.047937,0.005060,-0.012251
1980-01-06T00:09:24.243345566Z,-0.172383,-0.202310,9.696816,-0.033289,-0.003728,-0.012251
1980-01-06T00:09:24.263310513Z,0.038307,0.057461,9.744700,-0.015579,-0.008522,-0.012251
1980-01-06T00:09:24.283095982Z,-0.020351,-0.034716,9.783008,0.005060,-0.006791,-0.007989
1980-01-06T00:09:24.342666243Z,-0.155623,-0.350751,9.711182,0.016911,0.000133,-0.027164
1980-01-06T00:09:24.362578847Z,0.393846,-0.581791,9.715970,0.036086,-0.009854,-0.012251
1980-01-06T00:09:24.382431138Z,-0.005986,0.040701,9.888352,0.047537,-0.032091,0.055926
1980-01-06T00:09:24.402303899Z,-0.860716,0.345962,10.008062,0.260723,-0.045673,0.108124
1980-01-06T00:09:24.422151190Z,-0.399832,0.191536,11.660062,0.187486,0.304000,0.066579
1980-01-06T00:09:24.442013847Z,-0.049081,0.403423,12.095806,0.408928,0.807603,-0.013316
1980-01-06T00:09:24.501683222Z,0.390255,0.348356,12.301707,0.400805,-0.008123,0.091080
1980-01-06T00:09:24.521502909Z,-0.080206,0.262165,11.669639,0.178165,-0.273906,0.196541
1980-01-06T00:09:24.541367597Z,-0.408211,0.155623,10.654497,0.115581,-0.184690,0.177366
1980-01-06T00:09:24.561326659Z,-0.463278,0.011971,10.221446,0.162186,-0.061119,0.134756
1980-01-06T00:09:24.580795149Z,-0.501585,-0.022745,9.728240,0.070707,-0.044608,0.156061
1980-01-06T00:09:24.601032701Z,-0.610521,0.161609,9.512762,0.008522,-0.078297,0.182693
1980-01-06T00:09:24.620942805Z,-0.657208,0.220267,9.227552,0.141813,-0.053663,0.158192
1980-01-06T00:09:24.640681034Z,-0.812831,-0.045490,7.158962,0.480301,-0.062984,0.137952
1980-01-06T00:09:24.660586399Z,-0.435745,0.158017,8.930672,0.233692,-0.032757,0.099602
1980-01-06T00:09:24.680434680Z,-0.745794,0.263362,8.566753,-0.029162,0.034355,0.172040
1980-01-06T00:09:24.700332545Z,-0.690727,0.037110,7.929895,-0.032757,0.075634,0.180562
1980-01-06T00:09:24.720166763Z,-0.580594,-0.071826,7.776666,0.027031,0.188152,0.129430
1980-01-06T00:09:24.740030617Z,-0.511162,0.086191,8.159739,0.052464,0.212254,0.066579
1980-01-06T00:09:24.759887388Z,-0.274136,0.228646,8.466196,0.023169,0.136487,0.056992
1980-01-06T00:09:24.779740044Z,-0.432153,0.183156,8.365640,0.032491,0.061785,0.035686
1980-01-06T00:09:24.799706294Z,-0.647632,0.289698,8.322544,0.021438,0.049135,0.046339
1980-01-06T00:09:24.819616190Z,-0.706290,0.337582,8.719982,-0.015846,0.053929,0.066579
1980-01-06T00:09:24.839505982Z,-0.557849,0.355539,9.160515,-0.031958,0.027297,0.054861
1980-01-06T00:09:24.859352544Z,-0.567426,0.435745,9.213187,0.012650,0.040081,0.045274
1980-01-06T00:09:24.879142336Z,-0.579397,0.359130,9.184457,0.036086,0.117978,0.052731
1980-01-06T00:09:24.899079419Z,-0.550666,0.318429,9.280225,0.054994,0.155662,-0.000533
1980-01-06T00:09:24.918867440Z,-0.639252,0.363919,9.553164,-0.002397,0.074435,0.016512
1980-01-06T00:09:24.938786294Z,-0.671574,0.344765,9.601048,-0.025433,0.126633,-0.017577
1980-01-06T00:09:24.958587128Z,-0.657208,0.484826,9.579800,0.025833,0.203732,-0.022903
1980-01-06T00:09:24.978432284Z,-0.537498,0.215478,9.618107,0.015313,0.233958,-0.021838
1980-01-06T00:09:24.998406086Z,-0.435745,0.144849,9.718663,-0.036752,0.218645,-0.060187
1980-01-06T00:09:25.018183794Z,-0.435745,0.135272,9.694721,-0.106793,0.172573,-0.039947
1980-01-06T00:09:25.038020305Z,-0.318429,0.067038,9.792584,-0.019441,0.247807,-0.116646
1980-01-06T00:09:25.057959940Z,-0.294487,-0.142455,9.605837,0.003063,0.292814,-0.146474
1980-01-06T00:09:25.077817596Z,-0.306458,-0.459687,9.347262,-0.013982,0.358328,-0.183758
1980-01-06T00:09:25.097641503Z,-0.266953,-0.569820,9.554062,-0.062451,0.478037,-0.271110
1980-01-06T00:09:25.118316190Z,0.005986,-0.457293,9.812635,-0.091613,0.514922,-0.401072
1980-01-06T00:09:25.137381034Z,0.179565,-0.632069,10.039486,-0.137286,0.476439,-0.535295
1980-01-06T00:09:25.157257753Z,0.118513,-0.624887,10.331579,-0.176701,0.431565,-0.632234
1980-01-06T00:09:25.177090305Z,-0.022745,-0.599748,11.212646,-0.195476,0.359660,-0.696150
1980-01-06T00:09:25.197001659Z,-0.033519,-0.556652,11.538257,-0.117978,0.356464,-0.793089
1980-01-06T00:09:25.216884576Z,-0.101754,-0.774524,11.588236,0.004661,0.391085,-0.894289
1980-01-06T00:09:25.236755305Z,-0.311246,-0.675165,11.593024,0.070707,0.360059,-0.999750
1980-01-06T00:09:25.256600826Z,-0.506374,-0.363919,11.875540,0.074568,0.182826,-1.048752
1980-01-06T00:09:25.276552284Z,-0.974440,-0.166397,11.808502,0.142346,0.050733,-1.097754
1980-01-06T00:09:25.296407076Z,-1.596933,0.174777,11.957840,0.213452,-0.056193,-1.096689
1980-01-06T00:09:25.316310044Z,-1.865083,0.360327,11.766304,0.222773,-0.074702,-1.095623
1980-01-06T00:09:25.336129211Z,-2.087744,0.822408,11.839926,0.370445,-0.072172,-1.043426
1980-01-06T00:09:25.356009784Z,-2.306813,0.713472,11.744158,0.521047,-0.030493,-1.039165
1980-01-06T00:09:25.375892544Z,-2.419341,0.689530,11.744158,0.500274,-0.033556,-1.023186
1980-01-06T00:09:25.395666086Z,-2.524686,1.207875,12.526763,0.493750,-0.127432,-0.980575
1980-01-06T00:09:25.415524107Z,-2.899378,1.174356,11.631331,0.430233,-0.132892,-0.967792
1980-01-06T00:09:25.435398482Z,-3.585317,1.630451,13.336002,0.321843,-0.143145,-0.866592
1980-01-06T00:09:25.455229055Z,-3.240552,1.234211,10.448595,0.204930,-0.517984,-0.629038
1980-01-06T00:09:25.475102388Z,-4.195838,2.233790,13.307272,0.525841,-0.490554,-0.665257
1980-01-06T00:09:25.495095044Z,-4.745308,1.788469,12.829329,0.667787,-0.416784,-0.495880
1980-01-06T00:09:25.514846034Z,-4.835090,1.318008,12.096704,0.862597,-0.327169,-0.451139
1980-01-06T00:09:25.534726190Z,-4.686650,1.935712,11.431116,1.020789,-0.400672,-0.333960
1980-01-06T00:09:25.554602753Z,-4.523844,2.157176,11.086351,1.074718,-0.594417,-0.136886
1980-01-06T00:09:25.574441919Z,-4.395754,2.597709,10.382456,1.236105,-0.590289,-0.042078
1980-01-06T00:09:25.594409211Z,-4.516662,2.656367,9.672874,1.313337,-0.637427,0.100667
1980-01-06T00:09:25.614233013Z,-4.671088,2.061408,9.251494,1.292032,-0.645017,0.222107
1980-01-06T00:09:25.634131346Z,-4.562151,2.315193,8.949825,1.247024,-0.649411,0.370179
1980-01-06T00:09:25.673810773Z,-3.925294,2.744952,7.872435,1.280979,-0.522778,0.667388
1980-01-06T00:09:25.693706502Z,-3.600879,2.847903,7.106290,1.282710,-0.466452,0.832503
1980-01-06T00:09:25.713601919Z,-3.473987,3.326743,6.307524,1.253682,-0.423575,0.990162
1980-01-06T00:09:25.733449159Z,-3.075352,3.294421,5.881356,1.274721,-0.358994,1.158474
1980-01-06T00:09:25.753321294Z,-2.965219,2.802413,5.059547,1.190299,-0.167912,1.255413
1980-01-06T00:09:25.773176242Z,-2.788048,2.473210,4.695628,0.934902,-0.087485,1.374723
1980-01-06T00:09:25.793021607Z,-2.560599,2.300828,4.419996,0.636362,-0.141946,1.479118
1980-01-06T00:09:25.812926659Z,-1.917756,2.002750,4.022558,0.357929,-0.173105,1.635712
1980-01-06T00:09:25.832791971Z,-0.906205,1.537078,3.692158,0.130362,-0.034488,1.752891
1980-01-06T00:09:25.852657127Z,0.183156,1.369483,3.725677,-0.082691,0.180296,1.766740
1980-01-06T00:09:25.872452700Z,1.270124,1.347936,3.807080,-0.302269,0.236222,1.723064
1980-01-06T00:09:25.892367388Z,1.997961,1.082179,4.233248,-0.471379,0.201734,1.659148
1980-01-06T00:09:25.912208638Z,2.541445,1.130063,4.510975,-0.605203,0.237021,1.565405
1980-01-06T00:09:25.932065513Z,2.571373,1.361104,4.645051,-0.594550,0.209457,1.396028
1980-01-06T00:09:25.971873325Z,2.091335,0.571017,5.615002,-0.644351,0.152066,1.246891
1980-01-06T00:09:25.991703690Z,2.003947,0.579397,6.028899,-0.643685,0.331430,1.182975
1980-01-06T00:09:26.011573221Z,2.172738,0.457293,6.512528,-0.640090,0.424641,1.139299
1980-01-06T00:09:26.031409263Z,2.372654,0.173580,7.072771,-0.605602,0.515854,1.054078
1980-01-06T00:09:26.051289211Z,2.649184,0.286107,7.503727,-0.605602,0.617853,0.931573
1980-01-06T00:09:26.071123481Z,2.819172,0.598550,7.968203,-0.647148,0.561660,0.790958
1980-01-06T00:09:26.110861971Z,3.114856,-0.164003,8.873211,-0.824913,0.658333,0.552339
1980-01-06T00:09:26.130712127Z,3.337517,0.069432,9.883564,-0.870320,0.651409,0.407463
1980-01-06T00:09:26.150614836Z,3.161543,-0.263362,9.706393,-0.833835,0.627573,0.223173
1980-01-06T00:09:26.170457804Z,3.268085,-0.453701,10.793361,-0.978977,0.579104,0.100667
1980-01-06T00:09:26.190326502Z,3.277662,-0.521936,11.066299,-0.955275,0.583099,-0.044208
1980-01-06T00:09:26.210199471Z,2.946065,-0.660800,10.970531,-0.781238,0.662860,-0.211455
1980-01-06T00:09:26.230076919Z,2.545036,-0.808043,10.874763,-0.706802,0.712395,-0.347809
1980-01-06T00:09:26.269804263Z,0.930147,-0.525527,10.482115,-0.522645,0.558198,-0.610929
1980-01-06T00:09:26.309550877Z,1.181539,0.096965,10.817303,-0.464854,0.478170,-0.735564
1980-01-06T00:09:26.329482127Z,1.034295,-0.055067,10.702381,-0.413322,0.455800,-0.843156
1980-01-06T00:09:26.349288638Z,0.723049,-0.051475,10.934917,-0.477238,0.387090,-0.832503
1980-01-06T00:09:26.369169888Z,0.635661,-0.138864,11.638813,-0.391484,0.279099,-0.959270
1980-01-06T00:09:26.389052648Z,0.280122,0.730232,11.746253,-0.447411,0.146074,-0.992293
1980-01-06T00:09:26.428825096Z,-0.815226,0.274136,11.415853,-0.159124,0.015047,-1.051948
1980-01-06T00:09:26.448694575Z,-1.452083,0.020351,11.569082,-0.184291,-0.047138,-1.014663
1980-01-06T00:09:26.468491398Z,-2.053028,0.654814,13.211504,-0.309459,-0.053263,-0.910268
1980-01-06T00:09:26.488383377Z,-2.704251,0.656011,11.354502,-0.502804,-0.020773,-0.751543
1980-01-06T00:09:26.508294627Z,-2.511518,1.204283,13.020866,-0.348874,0.137818,-0.776044
1980-01-06T00:09:26.528150096Z,-2.692280,1.215057,12.551602,-0.241815,0.016911,-0.650343
1980-01-06T00:09:26.548065617Z,-3.031059,0.804452,12.036250,-0.050600,-0.049402,-0.577905
1980-01-06T00:09:26.587688429Z,-2.794033,0.343568,11.193492,0.117312,0.061918,-0.358461
1980-01-06T00:09:26.627624679Z,-2.214637,0.586579,10.079888,0.025699,0.075367,-0.037817
1980-01-06T00:09:26.647363221Z,-1.640028,0.430956,9.806950,0.108923,0.158192,-0.051665
1980-01-06T00:09:26.667235877Z,-1.297657,0.299275,9.490914,0.127299,0.031026,-0.017577
1980-01-06T00:09:26.687127335Z,-0.924162,0.045490,9.486126,0.100135,-0.053663,-0.016512
1980-01-06T00:09:26.726809679Z,-0.841562,-0.237026,8.554782,0.016512,-0.116114,0.004794
1980-01-06T00:09:26.746698533Z,-0.955287,-0.293290,8.506898,-0.042744,-0.007191,0.028229
1980-01-06T00:09:26.766545981Z,-0.806846,-0.185551,8.545205,-0.118910,0.045939,0.071905
1980-01-06T00:09:26.786545512Z,-0.670376,-0.095768,8.329727,-0.082691,0.017444,0.072971
1980-01-06T00:09:26.806322231Z,-0.672771,-0.277727,8.045714,-0.044608,-0.050201,0.085754
1980-01-06T00:09:26.826233533Z,-0.667982,-0.390255,7.859566,-0.055527,-0.080827,0.094808
1980-01-06T00:09:26.846049367Z,-0.578200,-0.240617,8.031948,-0.060321,-0.117712,0.098004
1980-01-06T00:09:26.865896762Z,-0.554258,-0.055067,7.936180,0.011984,-0.165648,0.106526
1980-01-06T00:09:26.885825565Z,-0.739808,-0.144849,8.065467,0.068177,-0.159523,0.121440
1980-01-06T00:09:26.905543169Z,-0.828394,-0.104148,8.266580,0.080028,-0.007989,0.102265
1980-01-06T00:09:26.925429367Z,-0.792481,-0.043096,8.318654,0.100268,0.173638,0.022903
1980-01-06T00:09:26.945297752Z,-0.581791,-0.135272,8.696938,-0.045407,0.221442,0.000533
1980-01-06T00:09:26.965165564Z,-0.725443,0.282516,8.969876,-0.058856,0.036219,0.121973
1980-01-06T00:09:26.985040669Z,-0.736217,0.186748,9.884461,-0.054728,-0.106260,0.234891
1980-01-06T00:09:27.004894054Z,-0.514753,-0.452504,9.587581,0.049801,0.097605,0.011185
1980-01-06T00:09:27.024769523Z,-0.793678,-0.160412,9.894038,0.085621,-0.064715,0.000533
1980-01-06T00:09:27.044604992Z,-0.805649,-0.180762,9.975441,-0.029561,-0.169377,0.124103
1980-01-06T00:09:27.064477023Z,-0.885855,0.262165,10.095152,0.168445,-0.110521,0.199737
1980-01-06T00:09:27.084359106Z,-0.744597,-0.142455,10.114305,0.091213,-0.062185,0.326503
1980-01-06T00:09:27.104221450Z,-0.781707,-0.019154,10.104729,-0.002663,0.251802,0.123038
1980-01-06T00:09:27.124077491Z,-0.640449,0.299275,10.961852,0.087218,0.151267,0.027164
1980-01-06T00:09:27.163816346Z,-0.543484,0.063446,10.875661,-0.082292,-0.204664,0.190150
1980-01-06T00:09:27.183702960Z,-0.423774,-0.007183,10.803835,-0.050201,-0.210123,0.115581
1980-01-06T00:09:27.203535252Z,-0.378284,0.148441,10.751163,-0.019974,-0.232227,0.101733
1980-01-06T00:09:27.223453898Z,-0.227449,-0.524330,10.645818,-0.016245,-0.165116,-0.014381
1980-01-06T00:09:27.243292179Z,-0.192733,-0.354342,10.698490,-0.093211,-0.244877,-0.126234
1980-01-06T00:09:27.263173273Z,-0.423774,0.071826,10.784681,-0.217713,-0.494815,-0.035686
1980-01-06T00:09:27.283045512Z,-0.621295,0.040701,10.669760,-0.229032,-0.551141,0.054861
1980-01-06T00:09:27.302908273Z,-0.640449,0.082600,10.329783,-0.141414,-0.301869,0.047404
1980-01-06T00:09:27.322768116Z,-0.428562,-0.003591,10.018537,-0.069775,-0.070174,0.064448
1980-01-06T00:09:27.342649783Z,-0.187945,-0.117316,10.234015,-0.047404,0.006791,0.043143
1980-01-06T00:09:27.362520460Z,-0.970849,0.201113,16.224009,0.089615,0.076965,-0.014781
1980-01-06T00:09:27.382352752Z,-0.211887,-0.245406,8.098388,0.380432,0.141547,-0.222107
1980-01-06T00:09:27.402248846Z,0.302867,-0.300472,9.381680,-0.010519,-0.062851,-0.066579
1980-01-06T00:09:27.422099262Z,0.529119,-0.117316,9.831789,0.042078,0.001731,-0.114516
1980-01-06T00:09:27.461826346Z,0.032322,0.046687,9.692925,-0.015713,-0.010519,0.012251
1980-01-06T00:09:27.481709575Z,0.071826,-0.167594,9.721656,-0.098004,0.048336,0.004794
1980-01-06T00:09:27.501563429Z,-0.150835,-0.361524,9.769540,-0.027963,0.016645,0.000533
1980-01-06T00:09:27.521439314Z,0.020351,-0.084994,9.721656,-0.017577,0.001198,0.007989
1980-01-06T00:09:27.541312543Z,-0.156820,-0.246603,9.783905,-0.014381,-0.004261,0.023968
1980-01-06T00:09:27.561169991Z,-0.081403,-0.427365,9.702203,0.011585,-0.012916,-0.013715
1980-01-06T00:09:27.581059783Z,0.381875,-0.083797,9.578004,0.099602,-0.013183,-0.021838
1980-01-06T00:09:27.620799991Z,-0.056264,-0.166397,9.726444,-0.003862,-0.011318,-0.009055
1980-01-06T00:09:27.640642387Z,-0.050278,-0.156820,9.731233,0.003196,-0.006924,0.004794
1980-01-06T00:09:27.660577023Z,-0.002394,-0.104148,9.726145,0.007457,-0.007989,-0.010519
1980-01-06T00:09:27.680524835Z,-0.038307,-0.181959,9.731233,0.009587,-0.006924,-0.013316
1980-01-06T00:09:27.700255877Z,-0.041899,-0.153229,9.740809,-0.001065,-0.007324,-0.014381
1980-01-06T00:09:27.720180408Z,-0.059855,-0.119710,9.731233,0.002530,-0.008256,-0.013316
1980-01-06T00:09:27.759819887Z,-0.057461,-0.144849,9.736021,-0.002929,-0.007590,-0.014381
1980-01-06T00:09:27.779703481Z,-0.046687,-0.132878,9.740809,-0.002929,-0.007723,-0.014381
1980-01-06T00:09:27.799652700Z,-0.035913,-0.138864,9.707291,-0.001065,-0.007057,-0.014381
1980-01-06T00:09:27.839330825Z,-0.059855,-0.155623,9.745598,-0.003595,-0.006924,-0.014381
1980-01-06T00:09:27.859194366Z,-0.075417,-0.148441,9.730933,-0.002929,-0.007457,-0.015846
1980-01-06T00:09:27.879058272Z,-0.053870,-0.143652,9.745298,-0.003462,-0.006525,-0.013715
1980-01-06T00:09:27.918775043Z,-0.052672,-0.147243,9.726444,-0.003995,-0.008123,-0.014381
1980-01-06T00:09:27.938668168Z,-0.062249,-0.161609,9.712079,-0.003063,-0.007723,-0.014381
1980-01-06T00:09:27.958526502Z,-0.063446,-0.148441,9.731233,-0.005060,-0.007856,-0.014381
1980-01-06T00:09:27.978450772Z,-0.065841,-0.147243,9.736021,-0.003595,-0.007191,-0.014381
1980-01-06T00:09:27.998273272Z,-0.050278,-0.150835,9.721656,-0.004527,-0.007723,-0.014381
1980-01-06T00:09:28.018131970Z,-0.050278,-0.159214,9.731233,-0.003595,-0.008256,-0.014381
1980-01-06T00:09:28.057832699Z,-0.067038,-0.155623,9.726444,-0.003862,-0.007723,-0.014381
1980-01-06T00:09:28.077734679Z,-0.056264,-0.158017,9.740809,-0.005060,-0.007723,-0.014381
1980-01-06T00:09:28.097593689Z,-0.050278,-0.159214,9.731233,-0.003462,-0.007457,-0.015446
1980-01-06T00:09:28.117452647Z,-0.055067,-0.156820,9.707291,-0.004394,-0.006924,-0.014381
1980-01-06T00:09:28.137464731Z,-0.052672,-0.149638,9.731233,-0.004128,-0.007590,-0.013316
1980-01-06T00:09:28.157298116Z,-0.062249,-0.142455,9.716867,-0.003995,-0.007989,-0.014381
1980-01-06T00:09:28.177103741Z,-0.058658,-0.155623,9.745598,-0.004128,-0.007989,-0.014381
1980-01-06T00:09:28.196921189Z,-0.049081,-0.155623,9.736021,-0.003462,-0.007057,-0.014381
1980-01-06T00:09:28.216786658Z,-0.061052,-0.158017,9.731233,-0.003196,-0.007856,-0.014381
1980-01-06T00:09:28.236660564Z,-0.034716,-0.158017,9.769540,-0.003462,-0.007057,-0.014381
1980-01-06T00:09:28.256495147Z,-0.058658,-0.135272,9.721656,-0.002929,-0.007590,-0.014381
1980-01-06T00:09:28.276405408Z,-0.077812,-0.221464,9.568427,0.000666,-0.007856,-0.014381
1980-01-06T00:09:28.296338585Z,-0.053870,-0.141258,9.788693,-0.000399,-0.008522,-0.014381
1980-01-06T00:09:28.316200876Z,-0.069432,-0.205901,9.558850,0.003728,-0.009587,-0.014381
