timestamp,accel_x,accel_y,accel_z,gyro_x,gyro_y,gyro_z
1980-01-06T00:24:50.221731046Z,-0.029928,-0.169988,9.766547,-0.003196,-0.008655,-0.012783
1980-01-06T00:24:50.241600525Z,-0.044293,-0.160412,9.733028,-0.003862,-0.008655,-0.013848
1980-01-06T00:24:50.261471827Z,-0.056264,-0.172383,9.656414,-0.000799,-0.007723,-0.013848
1980-01-06T00:24:50.281349952Z,-0.007183,-0.178368,9.699510,-0.000399,-0.009321,-0.014914
1980-01-06T00:24:50.301238389Z,-0.026336,-0.208296,9.718663,-0.000000,-0.007989,-0.014914
1980-01-06T00:24:50.321093493Z,-0.003591,-0.231040,9.661202,0.000266,-0.009587,-0.014914
1980-01-06T00:24:50.380685785Z,-0.043096,-0.201113,9.709086,-0.003728,-0.008522,-0.014914
1980-01-06T00:24:50.400570264Z,-0.026336,-0.207098,9.709086,-0.003728,-0.008655,-0.013848
1980-01-06T00:24:50.420424327Z,-0.035913,-0.216675,9.723452,-0.003063,-0.009587,-0.014914
1980-01-06T00:24:50.440319223Z,-0.005986,-0.222661,9.704298,-0.003595,-0.007856,-0.013848
1980-01-06T00:24:50.460164118Z,-0.056264,-0.229843,9.704298,-0.002929,-0.009454,-0.013848
1980-01-06T00:24:50.480027504Z,-0.039504,-0.195127,9.713875,-0.002530,-0.007723,-0.013848
1980-01-06T00:24:50.520056827Z,-0.013168,-0.220267,9.704298,-0.003196,-0.007723,-0.013848
1980-01-06T00:24:50.539635525Z,-0.020351,-0.213084,9.709086,-0.002264,-0.008522,-0.013848
1980-01-06T00:24:50.559517504Z,-0.021548,-0.210690,9.709086,-0.001598,-0.008522,-0.013848
1980-01-06T00:24:50.579369691Z,-0.039504,-0.214281,9.713875,-0.001065,-0.007590,-0.013848
1980-01-06T00:24:50.599238181Z,-0.039504,-0.197522,9.718663,-0.002397,-0.007989,-0.013848
1980-01-06T00:24:50.619213858Z,-0.041899,-0.215478,9.713875,-0.002131,-0.008256,-0.014914
1980-01-06T00:24:50.678764118Z,0.028730,-0.502782,9.598953,0.041812,-0.010519,-0.013848
1980-01-06T00:24:50.698636306Z,-0.122104,-0.667982,9.464878,-0.009721,-0.006258,-0.015979
1980-01-06T00:24:50.718537035Z,-0.008380,-0.280122,9.728240,-0.045673,-0.006658,-0.015979
1980-01-06T00:24:50.738400264Z,-0.052672,-0.290895,9.680356,-0.011851,-0.009987,-0.015979
1980-01-06T00:24:50.758227452Z,-0.005986,-0.122104,9.699510,0.013316,-0.013049,-0.014914
1980-01-06T00:24:50.778128233Z,-0.046687,-0.251391,9.685144,0.020373,-0.015446,-0.015979
1980-01-06T00:24:50.837722764Z,-0.045490,-0.178368,9.728240,-0.001864,-0.009587,-0.024501
1980-01-06T00:24:50.857568858Z,-0.039504,-0.296881,9.713276,-0.008389,-0.007723,-0.019175
1980-01-06T00:24:50.877442816Z,0.076614,-0.245406,9.713276,-0.008522,-0.003595,-0.012783
1980-01-06T00:24:50.897343597Z,-0.053870,-0.174777,9.761160,0.010519,-0.004394,-0.013848
1980-01-06T00:24:50.917222868Z,-0.033519,-0.088585,9.746795,0.025300,0.000399,-0.015979
1980-01-06T00:24:50.937055993Z,-0.053870,-0.205901,9.729736,0.022104,-0.005459,-0.016512
1980-01-06T00:24:50.976776722Z,-0.029928,-0.506374,9.930849,-0.025833,0.045540,-0.152865
1980-01-06T00:24:50.996698024Z,-0.137667,-0.154426,10.711359,-0.008655,0.312255,-0.209324
1980-01-06T00:24:51.016567972Z,-0.401029,0.463278,10.922049,0.080561,0.698946,-0.332895
1980-01-06T00:24:51.036397295Z,-0.063446,0.001197,10.677840,0.095874,0.770452,-0.259392
1980-01-06T00:24:51.056274535Z,0.073023,-0.077812,11.166258,0.235024,0.582033,-0.256196
1980-01-06T00:24:51.076181618Z,0.000000,-0.248997,10.821492,0.131427,0.238486,-0.166714
1980-01-06T00:24:51.096054379Z,-0.174777,-0.147243,10.582072,0.145142,0.088151,-0.180562
1980-01-06T00:24:51.135794379Z,-0.685939,-0.141258,9.935637,0.210123,0.095607,-0.195476
1980-01-06T00:24:51.155660993Z,-0.751779,0.046687,9.701006,0.171641,0.127565,-0.163518
1980-01-06T00:24:51.175520524Z,-0.916979,0.056264,9.332299,0.154996,0.119310,-0.125168
1980-01-06T00:24:51.195371566Z,-0.926556,-0.043096,9.150340,0.096007,0.035553,-0.084688
1980-01-06T00:24:51.215305993Z,-0.897826,0.017957,9.135975,0.029162,-0.064182,-0.038882
1980-01-06T00:24:51.235313545Z,-0.940921,0.266953,9.222166,0.061785,-0.109988,0.005859
1980-01-06T00:24:51.294730524Z,-0.635661,0.004788,8.944438,0.015713,-0.020506,0.021838
1980-01-06T00:24:51.314623754Z,-0.478840,0.146046,8.939650,-0.035021,0.007191,0.003728
1980-01-06T00:24:51.334465264Z,-0.489614,0.190339,9.121609,-0.074302,-0.055127,-0.004794
1980-01-06T00:24:51.354327556Z,-0.628478,0.246603,9.097667,-0.073636,-0.086420,-0.031425
1980-01-06T00:24:51.374216826Z,-0.858321,0.241814,9.212589,-0.058456,-0.098670,-0.030360
1980-01-06T00:24:51.394077608Z,-1.025915,0.118513,9.313146,-0.080561,-0.082292,-0.007989
1980-01-06T00:24:51.433812035Z,-1.453280,0.111330,9.298780,-0.111054,-0.056592,0.031425
1980-01-06T00:24:51.453693806Z,-1.630451,0.387861,9.366117,-0.115048,0.039148,0.031958
1980-01-06T00:24:51.473541149Z,-1.617283,0.547075,9.567230,-0.093477,0.074435,0.075634
1980-01-06T00:24:51.493427295Z,-1.660379,0.396240,9.552865,-0.105461,0.043942,0.135288
1980-01-06T00:24:51.513515212Z,-1.619677,0.396240,9.706094,-0.151267,0.041412,0.180030
1980-01-06T00:24:51.533151462Z,-1.665167,0.505177,10.065224,-0.160189,0.019574,0.254598
1980-01-06T00:24:51.553061045Z,-1.557428,0.497994,10.204087,-0.093876,0.080028,0.273773
1980-01-06T00:24:51.573124326Z,-1.668759,0.507571,10.323798,-0.067378,0.088683,0.317449
1980-01-06T00:24:51.592775837Z,-1.780089,0.497994,10.333375,-0.088017,0.067777,0.388821
1980-01-06T00:24:51.612717295Z,-1.699883,0.693121,10.568007,-0.113184,0.082824,0.439954
1980-01-06T00:24:51.632534743Z,-1.646014,0.769736,10.708067,-0.109456,0.046872,0.520381
1980-01-06T00:24:51.652457399Z,-1.620875,0.572214,11.052833,-0.092944,0.043809,0.562992
1980-01-06T00:24:51.692124795Z,-1.322796,0.588974,11.388021,-0.057924,0.002530,0.686562
1980-01-06T00:24:51.712053180Z,-1.270124,0.398635,11.316195,0.012650,0.021572,0.718520
1980-01-06T00:24:51.732090680Z,-1.221043,0.220267,11.258734,0.052997,0.038083,0.747282
1980-01-06T00:24:51.751948753Z,-1.128866,0.142455,11.320983,0.070441,0.010519,0.762196
1980-01-06T00:24:51.771627712Z,-1.092953,0.105345,11.244369,0.081093,0.015979,0.769653
1980-01-06T00:24:51.791470680Z,-1.092953,0.308852,10.894814,0.422776,-0.046872,0.768588
1980-01-06T00:24:51.811401149Z,-1.070208,-0.062249,11.239580,0.054994,-0.001465,0.808002
1980-01-06T00:24:51.831205212Z,-1.067814,0.173580,10.971429,0.202800,-0.002264,0.799480
1980-01-06T00:24:51.851082868Z,-0.822408,-0.015562,11.110293,0.280697,-0.054195,0.796284
1980-01-06T00:24:51.910741097Z,-0.544681,0.031125,10.755951,0.434095,-0.160189,0.826112
1980-01-06T00:24:51.930574274Z,-0.428562,0.025139,10.564415,0.457664,-0.249405,0.814394
1980-01-06T00:24:51.950426826Z,-0.141258,-0.032322,10.909180,0.398941,-0.328900,0.814394
1980-01-06T00:24:51.970296670Z,-0.264559,0.051475,11.048044,0.275371,-0.281895,0.827177
1980-01-06T00:24:51.990189378Z,-0.159214,0.173580,11.316195,0.394813,-0.209857,0.805872
1980-01-06T00:24:52.010034326Z,-0.065841,-0.071826,11.311406,0.509595,-0.203598,0.753674
1980-01-06T00:24:52.069668337Z,0.488417,-0.203507,10.923545,0.476173,-0.335824,0.650343
1980-01-06T00:24:52.089540316Z,0.426168,0.017957,10.602722,0.518783,-0.446079,0.594950
1980-01-06T00:24:52.109411670Z,0.213084,0.197522,10.727221,0.550342,-0.541686,0.618385
1980-01-06T00:24:52.129279430Z,0.383072,0.417788,10.530896,0.636894,-0.594950,0.616255
1980-01-06T00:24:52.149147399Z,0.521936,0.282516,10.238804,0.738228,-0.751943,0.618385
1980-01-06T00:24:52.169051618Z,0.950498,0.243011,10.334572,0.688160,-0.769253,0.503337
1980-01-06T00:24:52.208831982Z,2.003947,0.305261,10.387244,0.641821,-0.883503,0.358461
1980-01-06T00:24:52.228678701Z,2.341529,0.429759,10.190920,0.666322,-0.773648,0.254065
1980-01-06T00:24:52.248534534Z,2.497152,0.483629,9.917980,0.690291,-0.764726,0.182693
1980-01-06T00:24:52.268374170Z,2.621651,0.676362,9.860519,0.707734,-0.710797,0.064448
1980-01-06T00:24:52.288232920Z,2.753332,0.875081,9.683349,0.757802,-0.745951,-0.046339
1980-01-06T00:24:52.308330420Z,2.657564,0.817620,9.376891,0.780572,-0.764593,-0.169910
1980-01-06T00:24:52.367761722Z,2.612074,1.079785,8.452729,0.698680,-0.705338,-0.389354
1980-01-06T00:24:52.387587711Z,2.806004,1.532289,8.366538,0.701343,-0.614657,-0.463922
1980-01-06T00:24:52.407520941Z,2.850297,1.844732,8.304289,0.802676,-0.668985,-0.500141
1980-01-06T00:24:52.427331982Z,2.845509,1.644817,7.772776,0.886299,-0.697748,-0.571514
1980-01-06T00:24:52.447258024Z,2.647987,1.801637,7.236475,0.857537,-0.710930,-0.598145
1980-01-06T00:24:52.467085941Z,2.628834,1.962048,6.968324,0.784300,-0.658466,-0.653539
1980-01-06T00:24:52.526672972Z,3.014300,2.475605,6.546945,0.457531,-0.611728,-0.817590
1980-01-06T00:24:52.546578597Z,3.230975,2.826355,6.637924,0.358461,-0.693353,-0.892158
1980-01-06T00:24:52.566478753Z,3.166332,3.013103,6.566098,0.287089,-0.738361,-0.964596
1980-01-06T00:24:52.586304482Z,3.044227,3.375824,6.470330,0.291083,-0.693487,-1.051948
1980-01-06T00:24:52.606200576Z,2.821567,3.338714,6.393716,0.306796,-0.601741,-1.086036
1980-01-06T00:24:52.626007711Z,2.724602,3.417723,6.221333,0.325571,-0.436891,-1.152082
1980-01-06T00:24:52.685672503Z,2.124854,3.594894,5.876568,0.121041,-0.335159,-1.287371
1980-01-06T00:24:52.705571618Z,1.940500,3.938462,5.852626,0.053796,-0.308261,-1.318264
1980-01-06T00:24:52.725403232Z,1.702277,4.189853,5.694609,0.001332,-0.289219,-1.292697
1980-01-06T00:24:52.745258961Z,1.825579,4.274847,5.459977,-0.088151,-0.142878,-1.314003
1980-01-06T00:24:52.765190472Z,1.878251,4.265270,5.522226,-0.159257,-0.059788,-1.339569
1980-01-06T00:24:52.785032659Z,1.537078,4.556166,5.780800,-0.175768,-0.070973,-1.304415
1980-01-06T00:24:52.824732711Z,0.620098,4.450821,5.574899,-0.122905,-0.045540,-1.301219
1980-01-06T00:24:52.844602347Z,0.572214,4.444836,5.440824,-0.302269,-0.089482,-1.322525
1980-01-06T00:24:52.864468284Z,0.409408,4.594473,5.589264,-0.449275,-0.223306,-1.277784
1980-01-06T00:24:52.884365107Z,-0.037110,4.619612,5.771223,-0.511326,-0.236755,-1.211737
1980-01-06T00:24:52.904235420Z,-0.302867,4.746505,6.021118,-0.556733,-0.089882,-1.135038
1980-01-06T00:24:52.924078336Z,-0.385466,4.680665,6.341941,-0.556201,0.041812,-1.077514
1980-01-06T00:24:52.983709742Z,-1.022324,4.720169,6.648399,-0.669252,0.016645,-0.899615
1980-01-06T00:24:53.003599638Z,-1.058237,4.553771,6.935703,-0.719319,0.102931,-0.830373
1980-01-06T00:24:53.023448284Z,-1.104924,4.449624,7.266103,-0.719586,0.187486,-0.769653
1980-01-06T00:24:53.043298909Z,-1.258153,4.424485,7.486370,-0.714526,0.249538,-0.735564
1980-01-06T00:24:53.063398753Z,-1.327585,4.313154,7.711424,-0.703473,0.252734,-0.695084
1980-01-06T00:24:53.083036826Z,-1.412579,4.316746,7.749732,-0.717854,0.196275,-0.660996
1980-01-06T00:24:53.103158284Z,-1.748964,4.006697,7.888595,-0.731836,0.116247,-0.590689
1980-01-06T00:24:53.123021826Z,-1.934515,4.163517,8.348282,-0.846618,0.181361,-0.520381
1980-01-06T00:24:53.142886461Z,-1.838747,4.298789,8.895058,-0.856472,0.251136,-0.433562
1980-01-06T00:24:53.162539742Z,-1.707066,4.140772,9.110536,-0.794687,0.291749,-0.385625
1980-01-06T00:24:53.182477555Z,-1.693898,3.761291,9.110536,-0.714792,0.302535,-0.340884
1980-01-06T00:24:53.202297867Z,-1.754950,3.689465,9.124901,-0.736230,0.334093,-0.315318
1980-01-06T00:24:53.222184534Z,-1.763330,3.530250,9.407417,-0.793754,0.326770,-0.263120
1980-01-06T00:24:53.242002086Z,-1.978808,3.444059,9.608530,-0.734100,0.384826,-0.225836
1980-01-06T00:24:53.281762451Z,-2.019509,3.432088,9.766547,-0.618252,0.388289,-0.153398
1980-01-06T00:24:53.301637242Z,-2.155979,3.197456,9.742605,-0.651409,0.354200,-0.119310
1980-01-06T00:24:53.321497294Z,-2.343924,3.247735,9.584588,-0.700677,0.299073,-0.063916
1980-01-06T00:24:53.341353544Z,-2.415750,3.343503,9.857527,-0.765126,0.275237,0.019175
1980-01-06T00:24:53.361246826Z,-2.424129,2.996343,9.383475,-0.732235,0.308394,0.075634
1980-01-06T00:24:53.381131253Z,-2.199074,2.858677,10.187927,-0.669119,0.316650,0.098004
1980-01-06T00:24:53.440718076Z,-2.761712,2.173935,10.096947,-0.674578,0.192014,0.297209
1980-01-06T00:24:53.460822346Z,-2.549825,2.433706,10.163984,-0.654604,0.317049,0.329166
1980-01-06T00:24:53.480457034Z,-2.477999,2.590526,10.260351,-0.657667,0.248073,0.405865
1980-01-06T00:24:53.500332503Z,-2.686294,2.275689,10.222044,-0.590555,0.130628,0.447411
1980-01-06T00:24:53.520182919Z,-2.716222,1.965640,10.442310,-0.624910,0.106260,0.532632
1980-01-06T00:24:53.540035055Z,-2.719813,2.079364,10.222044,-0.623845,0.192813,0.574177
1980-01-06T00:24:53.619754586Z,-2.882619,1.754950,10.250774,-0.502405,0.081493,0.820253
1980-01-06T00:24:53.639393023Z,-2.713828,1.543063,10.212467,-0.518916,0.105861,0.890560
1980-01-06T00:24:53.659299013Z,-2.512715,1.237802,10.667366,-0.623845,0.123704,0.982173
1980-01-06T00:24:53.679151930Z,-2.542642,1.144428,10.676943,-0.603205,0.090148,1.013066
1980-01-06T00:24:53.699056461Z,-2.361880,0.646434,10.983400,-0.638226,-0.017444,1.113200
1980-01-06T00:24:53.738745992Z,-1.810017,0.782904,11.634624,-0.505601,0.123171,1.119592
1980-01-06T00:24:53.758664951Z,-2.025495,0.518345,11.534067,-0.388155,0.037018,1.160072
1980-01-06T00:24:53.778509586Z,-1.853112,0.385466,11.476605,-0.337689,0.062851,1.192030
1980-01-06T00:24:53.798380211Z,-1.697489,0.226252,11.534067,-0.264718,0.054728,1.239967
1980-01-06T00:24:53.818256096Z,-1.529895,-0.116119,11.452663,-0.217980,0.094942,1.257011
1980-01-06T00:24:53.838164273Z,-1.193510,-0.025139,11.658566,-0.209324,0.091346,1.265533
1980-01-06T00:24:53.858059221Z,-1.016339,-0.062249,11.720815,-0.130095,-0.017976,1.243163
1980-01-06T00:24:53.897760523Z,-0.593762,-0.191536,12.137405,-0.101600,-0.142745,1.184573
1980-01-06T00:24:53.917610836Z,-0.809240,0.071826,12.214020,-0.000533,-0.281096,1.192030
1980-01-06T00:24:53.937460992Z,-0.934936,-0.177171,12.070368,0.109056,-0.288820,1.189899
1980-01-06T00:24:53.957352294Z,-0.744597,-0.520739,12.170924,0.145808,-0.234757,1.246358
1980-01-06T00:24:53.977227138Z,-0.420182,-0.215478,12.314576,0.150602,-0.068710,1.262337
1980-01-06T00:24:53.997093648Z,-0.288501,0.069432,12.319365,0.231828,0.087884,1.263403
1980-01-06T00:24:54.017032971Z,0.243011,-0.027533,12.228385,0.246742,0.071506,1.211205
1980-01-06T00:24:54.056811877Z,0.696713,-0.422577,12.008119,0.358861,-0.679106,0.934236
1980-01-06T00:24:54.076579586Z,0.156820,-0.542287,11.534067,0.342882,-0.849548,0.814927
1980-01-06T00:24:54.096432763Z,-0.234632,-0.515950,11.150994,0.520115,-0.767522,0.751011
1980-01-06T00:24:54.116354065Z,-0.269348,-0.368707,10.753557,0.579104,-0.506666,0.761663
1980-01-06T00:24:54.136189690Z,-0.041899,-0.307655,9.867702,0.627973,-0.275237,0.769120
1980-01-06T00:24:54.156046669Z,0.501585,-0.274136,10.413580,0.568718,-0.200403,0.731836
1980-01-06T00:24:54.195792138Z,1.012747,0.014365,10.313024,0.531966,-0.629571,0.544350
1980-01-06T00:24:54.215650627Z,0.961272,0.146046,10.169372,0.486293,-0.870986,0.438889
1980-01-06T00:24:54.235508544Z,1.017536,0.288501,10.111911,0.517052,-0.994157,0.361124
1980-01-06T00:24:54.255387971Z,1.061828,0.196325,9.994296,0.550075,-0.941826,0.318647
1980-01-06T00:24:54.275276148Z,1.347936,0.158017,9.726145,0.550475,-0.740092,0.302668
1980-01-06T00:24:54.295188961Z,1.781286,0.257377,9.673472,0.535029,-0.485094,0.270710
1980-01-06T00:24:54.315210002Z,2.280477,0.430956,9.793182,0.517851,-0.391751,0.228100
1980-01-06T00:24:54.335155888Z,2.457648,0.615310,9.673472,0.589490,-0.380832,0.126900
1980-01-06T00:24:54.354839534Z,2.462436,0.624887,9.299977,0.673646,-0.390419,-0.016911
1980-01-06T00:24:54.374636513Z,2.426523,0.695516,8.830713,0.689625,-0.436625,-0.137286
1980-01-06T00:24:54.394544586Z,2.313996,0.820014,8.366239,0.689225,-0.423043,-0.268313
1980-01-06T00:24:54.414352919Z,2.165555,0.928950,7.513903,0.718254,-0.410126,-0.394014
1980-01-06T00:24:54.434416304Z,2.462436,1.198298,8.284836,0.566853,-0.477504,-0.422776
1980-01-06T00:24:54.454096669Z,2.414552,1.414973,7.590517,0.619051,-0.536893,-0.561261
1980-01-06T00:24:54.513751200Z,2.103306,1.978808,6.831256,0.499209,-0.531034,-0.737162
1980-01-06T00:24:54.533577659Z,2.097321,2.027889,6.572682,0.418649,-0.458729,-0.810666
1980-01-06T00:24:54.553462919Z,2.139219,2.298434,6.706758,0.288686,-0.449674,-0.837297
1980-01-06T00:24:54.573323909Z,2.098518,2.704251,6.802526,0.237953,-0.418649,-0.876712
1980-01-06T00:24:54.593208804Z,2.057816,2.972401,7.190386,0.255530,-0.388289,-0.909735
1980-01-06T00:24:54.613063023Z,1.975216,2.975993,7.171233,0.323574,-0.355132,-0.960868
1980-01-06T00:24:54.652772190Z,1.576582,2.980781,6.735488,0.293081,-0.303334,-1.029045
1980-01-06T00:24:54.672643075Z,1.353921,3.411737,6.630143,0.227966,-0.205330,-1.027979
1980-01-06T00:24:54.692541200Z,1.212663,3.572149,6.673239,0.200136,-0.124103,-1.020522
1980-01-06T00:24:54.712401356Z,1.133654,3.903746,6.749853,0.176701,-0.073503,-1.022653
1980-01-06T00:24:54.732261617Z,1.024718,4.109647,6.697181,0.154863,-0.091213,-1.009870
1980-01-06T00:24:54.752144325Z,0.928950,4.129998,6.673239,0.091080,-0.067378,-1.018392
1980-01-06T00:24:54.772004586Z,0.824802,4.237737,6.711546,-0.006924,-0.092412,-1.007739
1980-01-06T00:24:54.811853908Z,0.706290,4.332308,7.161656,-0.115981,-0.074968,-0.999217
1980-01-06T00:24:54.831595523Z,0.543484,4.192247,6.917447,-0.062318,-0.023303,-1.003478
1980-01-06T00:24:54.851515731Z,0.290895,4.086902,6.520010,-0.113717,0.014647,-1.005609
1980-01-06T00:24:54.871367346Z,0.032322,4.097676,6.405088,-0.219711,0.056193,-0.957672
1980-01-06T00:24:54.891269377Z,-0.074220,4.116830,6.443395,-0.300804,0.151401,-0.928910
1980-01-06T00:24:54.911122033Z,-0.195127,4.532224,6.807314,-0.404134,0.150602,-0.883103
1980-01-06T00:24:54.970767919Z,-0.921768,4.031836,7.611766,-0.349540,0.039681,-0.812796
1980-01-06T00:24:54.990615679Z,-1.133654,3.780444,7.487267,-0.350472,0.050600,-0.784034
1980-01-06T00:24:55.010467867Z,-1.186327,4.003105,7.525575,-0.461392,0.101200,-0.733967
1980-01-06T00:24:55.030326981Z,-1.205481,4.290410,7.879916,-0.537958,0.114250,-0.633832
1980-01-06T00:24:55.050214585Z,-1.215057,4.009091,8.181585,-0.518384,0.312122,-0.590156
1980-01-06T00:24:55.070079950Z,-1.112107,3.970783,8.306085,-0.508797,0.409461,-0.583764
1980-01-06T00:24:55.129682606Z,-1.498770,3.810372,8.732252,-0.634364,0.072837,-0.531567
1980-01-06T00:24:55.149568440Z,-1.671153,3.962404,8.938153,-0.674312,0.062851,-0.452737
1980-01-06T00:24:55.169411877Z,-1.805228,3.815161,9.330803,-0.577772,0.108391,-0.358994
1980-01-06T00:24:55.189310627Z,-1.606509,3.438074,9.460090,-0.559929,0.151001,-0.325971
1980-01-06T00:24:55.209163335Z,-1.782483,3.278859,9.282919,-0.579104,0.066978,-0.323840
1980-01-06T00:24:55.229000054Z,-2.055422,3.272874,8.889372,-0.609198,-0.044741,-0.269512
1980-01-06T00:24:55.268750992Z,-1.970428,3.341109,9.856629,-0.855806,-0.021572,-0.102265
1980-01-06T00:24:55.288685158Z,-2.189497,3.446453,9.200618,-0.714126,0.008922,-0.060720
1980-01-06T00:24:55.308516356Z,-2.293645,3.095703,9.574113,-0.752342,0.068710,0.026632
1980-01-06T00:24:55.328400575Z,-2.129642,2.968810,9.923667,-0.735165,-0.021039,0.100135
1980-01-06T00:24:55.348228804Z,-2.494758,2.810793,9.947609,-0.765924,-0.011585,0.162985
1980-01-06T00:24:55.368082971Z,-2.741361,2.828749,9.746496,-0.694552,0.029162,0.225836
1980-01-06T00:24:55.427740679Z,-2.279280,2.420538,10.282797,-0.631435,0.386158,0.450606
1980-01-06T00:24:55.447587242Z,-2.378639,2.408567,10.076896,-0.631701,0.256595,0.517718
1980-01-06T00:24:55.467477762Z,-2.433706,1.987187,10.115203,-0.601741,0.189217,0.585895
1980-01-06T00:24:55.487369221Z,-2.348712,1.865083,10.316316,-0.683367,0.210390,0.645550
1980-01-06T00:24:55.507203908Z,-2.302025,1.890222,10.488698,-0.703207,0.111453,0.714792
1980-01-06T00:24:55.527080887Z,-2.206257,1.576582,11.025000,-0.715324,0.089882,0.835167
1980-01-06T00:24:55.586686669Z,-1.448492,0.696713,12.523769,-0.533164,0.261123,0.990695
1980-01-06T00:24:55.606547866Z,-1.519121,1.029507,13.438354,-0.438489,0.278034,0.990695
1980-01-06T00:24:55.626422033Z,-1.711854,0.587777,13.921984,-0.243013,0.127565,1.016261
1980-01-06T00:24:55.646322606Z,-1.539472,0.307655,14.525322,-0.174437,0.068843,1.059937
1980-01-06T00:24:55.666362866Z,-1.241394,0.339977,14.659398,0.061253,0.081493,1.073786
1980-01-06T00:24:55.686077814Z,-0.857124,-0.077812,14.271537,0.281496,0.083756,1.097221
1980-01-06T00:24:55.725770158Z,0.537498,-0.482432,13.538911,0.478703,-0.055793,1.029045
1980-01-06T00:24:55.745664221Z,0.787692,-0.940921,13.433566,0.522245,-0.185223,0.924649
1980-01-06T00:24:55.765521668Z,0.848745,-0.835576,13.045706,0.627440,-0.389753,0.815992
1980-01-06T00:24:55.785383804Z,0.816423,-0.951695,12.217312,0.804540,-0.521180,0.724379
1980-01-06T00:24:55.805448335Z,1.107318,-1.119289,11.767202,0.840493,-0.514256,0.656202
1980-01-06T00:24:55.825204637Z,1.570596,-0.762553,11.192594,0.847817,-0.539023,0.574177
1980-01-06T00:24:55.845018179Z,1.614889,-0.395043,10.819098,0.844221,-0.525974,0.475108
1980-01-06T00:24:55.884997554Z,1.865083,-0.034716,10.038589,0.932771,-0.531433,0.267381
1980-01-06T00:24:55.904657658Z,2.070984,0.075417,9.550171,0.940095,-0.590023,0.142745
1980-01-06T00:24:55.924458543Z,2.152387,0.110133,8.879795,0.924116,-0.623978,-0.018109
1980-01-06T00:24:55.944354377Z,1.983596,0.441730,8.400954,0.897485,-0.661529,-0.125701
1980-01-06T00:24:55.964219898Z,1.866280,0.509965,7.744943,0.893223,-0.595615,-0.224771
1980-01-06T00:24:55.984091408Z,1.989582,0.679953,7.108086,0.835433,-0.493350,-0.319579
1980-01-06T00:24:56.043749585Z,1.989582,1.590947,5.949292,0.558997,-0.355532,-0.495348
1980-01-06T00:24:56.063618127Z,2.233790,1.917756,6.183924,0.540222,-0.295744,-0.562459
1980-01-06T00:24:56.083500679Z,2.073379,1.780089,5.336376,0.468050,-0.212387,-0.664724
1980-01-06T00:24:56.103298075Z,1.928530,1.977611,5.389049,0.283760,-0.146341,-0.739293
1980-01-06T00:24:56.123185887Z,1.654393,2.425326,5.666776,0.142878,-0.142745,-0.810666
1980-01-06T00:24:56.143079845Z,1.306037,2.695871,6.011541,0.085088,-0.108923,-0.853276
1980-01-06T00:24:56.202708804Z,-0.140061,2.910152,6.638822,-0.111187,0.036752,-0.980042
1980-01-06T00:24:56.222517450Z,-0.794875,3.184288,6.681918,-0.186022,0.031026,-0.994956
1980-01-06T00:24:56.242404950Z,-1.380257,3.313575,6.849512,-0.278566,-0.029028,-0.919322
1980-01-06T00:24:56.262283543Z,-1.951274,3.257311,6.993164,-0.337422,0.015446,-0.866059
1980-01-06T00:24:56.282152606Z,-2.100912,3.402161,6.921338,-0.408795,0.055261,-0.778708
1980-01-06T00:24:56.302010575Z,-2.123657,3.706224,6.983587,-0.478969,0.087085,-0.680703
1980-01-06T00:24:56.361825835Z,-2.485181,3.881001,7.658752,-0.634098,0.313187,-0.429301
1980-01-06T00:24:56.381698700Z,-2.559402,3.728969,9.157522,-0.718121,0.268979,-0.339819
1980-01-06T00:24:56.401559325Z,-2.488773,3.829526,9.392154,-0.705204,0.247008,-0.269512
1980-01-06T00:24:56.421304220Z,-2.530671,3.825934,9.775227,-0.704139,0.304932,-0.190682
1980-01-06T00:24:56.441074533Z,-2.488773,3.496732,10.081684,-0.607733,0.339686,-0.125701
1980-01-06T00:24:56.500702137Z,-2.551022,3.160346,10.278008,-0.520781,0.357396,0.076699
1980-01-06T00:24:56.520578647Z,-2.404976,2.989161,10.282797,-0.526240,0.363255,0.150202
1980-01-06T00:24:56.540524377Z,-2.412158,2.919729,10.292374,-0.530768,0.357263,0.232227
1980-01-06T00:24:56.560328231Z,-2.273294,2.743755,10.268432,-0.519316,0.342882,0.289752
1980-01-06T00:24:56.580207710Z,-2.054225,2.770091,10.598831,-0.550741,0.262721,0.350472
1980-01-06T00:24:56.600078439Z,-2.193089,2.768894,10.771214,-0.505601,0.212786,0.395213
1980-01-06T00:24:56.659689897Z,-1.823185,2.115277,11.216536,-0.448343,0.236888,0.555002
1980-01-06T00:24:56.679562970Z,-1.839944,2.020706,11.063307,-0.347809,0.227167,0.574177
1980-01-06T00:24:56.699435314Z,-1.819593,1.669956,10.910078,-0.310125,0.197740,0.598678
1980-01-06T00:24:56.719277189Z,-1.601721,1.532289,11.163863,-0.310258,0.160322,0.638093
1980-01-06T00:24:56.739150106Z,-1.631648,1.493982,11.230901,-0.241149,0.122372,0.631701
1980-01-06T00:24:56.759058126Z,-1.778892,1.444901,10.843040,-0.205862,0.045141,0.649811
1980-01-06T00:24:56.798774845Z,-1.306037,1.361104,11.145308,-0.192147,0.027963,0.696150
1980-01-06T00:24:56.818629064Z,-0.920571,1.277307,11.154885,-0.198672,-0.241549,0.640756
1980-01-06T00:24:56.838524585Z,-0.954089,1.389834,10.948983,-0.190815,-0.563391,0.620516
1980-01-06T00:24:56.858348491Z,-1.095347,1.679533,11.107001,-0.141014,-0.584297,0.663127
1980-01-06T00:24:56.878275887Z,-0.912191,1.752556,11.384728,-0.059522,-0.369380,0.730238
1980-01-06T00:24:56.898110991Z,-0.623690,1.508347,11.595418,0.052464,-0.171507,0.756870
1980-01-06T00:24:56.957721564Z,-0.162806,0.845153,12.490849,0.184291,-0.474841,0.654604
1980-01-06T00:24:56.977594897Z,-0.414197,0.573411,12.347198,0.268580,-0.548478,0.635430
1980-01-06T00:24:56.997442085Z,-0.248997,0.688333,12.141296,0.351670,-0.494682,0.647148
1980-01-06T00:24:57.017333491Z,0.058658,0.478840,11.839626,0.442218,-0.407463,0.650343
1980-01-06T00:24:57.037196928Z,0.550666,0.287304,11.423036,0.470314,-0.378834,0.611994
1980-01-06T00:24:57.057070626Z,1.120486,0.402226,10.977715,0.479768,-0.547279,0.541686
1980-01-06T00:24:57.116659272Z,1.497573,0.712275,10.120590,0.504269,-0.515055,0.394680
1980-01-06T00:24:57.136584428Z,1.636437,1.003170,10.230723,0.630370,-0.375239,0.387223
1980-01-06T00:24:57.156412189Z,1.717840,0.669179,10.240300,0.714659,-0.292548,0.353135
1980-01-06T00:24:57.176306355Z,2.014721,0.464475,10.095450,0.675111,-0.350072,0.275903
1980-01-06T00:24:57.196148543Z,2.178724,0.580594,10.085874,0.603205,-0.501473,0.170442
1980-01-06T00:24:57.216080314Z,2.214637,0.768539,9.870396,0.599877,-0.629837,0.070307
1980-01-06T00:24:57.255780158Z,2.340332,1.018733,9.415498,0.636095,-0.652474,-0.082025
1980-01-06T00:24:57.275691824Z,2.562993,1.021127,9.228749,0.655537,-0.523444,-0.184291
1980-01-06T00:24:57.295540105Z,3.049016,1.121683,8.965387,0.603605,-0.614258,-0.267381
1980-01-06T00:24:57.315402085Z,3.177106,1.034295,8.582315,0.598012,-0.772982,-0.396278
1980-01-06T00:24:57.335456147Z,3.129222,1.012747,8.424298,0.622647,-0.836765,-0.527305
1980-01-06T00:24:57.355321824Z,3.010709,1.034295,7.782652,0.605070,-0.869122,-0.629571
1980-01-06T00:24:57.414710730Z,2.971204,2.009932,6.475418,0.509329,-0.748880,-0.856472
1980-01-06T00:24:57.434620939Z,2.970007,2.144008,6.379650,0.484961,-0.651675,-0.925714
1980-01-06T00:24:57.454490939Z,3.015497,2.329558,6.346131,0.450074,-0.652740,-0.980042
1980-01-06T00:24:57.474366772Z,2.914941,2.518700,6.322787,0.413722,-0.734499,-1.097221
1980-01-06T00:24:57.494198803Z,2.448071,2.595315,6.155193,0.319979,-0.871386,-1.164333
1980-01-06T00:24:57.514079845Z,2.124854,2.782062,6.030695,0.214651,-0.830772,-1.228249
1980-01-06T00:24:57.573688230Z,1.379060,3.632004,5.958869,-0.016911,-0.182293,-1.150485
1980-01-06T00:24:57.593573959Z,1.527501,3.767276,6.011541,-0.142612,-0.061785,-1.125984
1980-01-06T00:24:57.613431512Z,1.555034,3.910928,6.198289,-0.233026,-0.039814,-1.080177
1980-01-06T00:24:57.633334064Z,1.441309,3.983952,6.102521,-0.247940,0.086819,-1.103613
1980-01-06T00:24:57.653152241Z,1.234211,4.199430,6.279692,-0.251003,0.111720,-1.121722
1980-01-06T00:24:57.673099689Z,1.049857,4.410120,6.203077,-0.284292,0.115182,-1.140897
1980-01-06T00:24:57.712762553Z,0.357933,4.406528,6.025907,-0.459928,0.109190,-1.168594
1980-01-06T00:24:57.732646251Z,-0.008380,4.272453,6.385934,-0.611728,0.077498,-1.103613
1980-01-06T00:24:57.752507136Z,-0.421380,4.071340,7.003639,-0.587360,0.170442,-1.057807
1980-01-06T00:24:57.772380886Z,-0.688333,3.849876,7.104195,-0.558864,0.232361,-0.988565
1980-01-06T00:24:57.792269845Z,-0.673968,3.711013,7.343615,-0.621049,0.265251,-0.932106
1980-01-06T00:24:57.812371564Z,-0.770933,3.840300,7.669227,-0.635030,0.292015,-0.862863
1980-01-06T00:24:57.832023334Z,-0.644040,3.655946,7.875128,-0.647947,0.375239,-0.869255
1980-01-06T00:24:57.871821251Z,-1.242591,3.341109,8.028357,-0.680304,0.173904,-0.876712
1980-01-06T00:24:57.891648439Z,-1.619677,3.660734,8.286931,-0.714659,0.129696,-0.795752
1980-01-06T00:24:57.911533230Z,-1.753753,3.764882,8.732252,-0.724246,0.182027,-0.697748
1980-01-06T00:24:57.931556564Z,-1.871069,3.563769,8.885481,-0.672314,0.296676,-0.633832
1980-01-06T00:24:57.951288230Z,-2.142811,3.037045,8.856750,-0.586827,0.331297,-0.566720
1980-01-06T00:24:57.971098126Z,-2.352303,2.699462,8.483255,-0.581368,0.346078,-0.503870
1980-01-06T00:24:58.011056251Z,-2.379837,3.479972,8.081029,-0.684032,0.317715,-0.358994
1980-01-06T00:24:58.030718959Z,-2.548628,2.834735,9.139266,-0.790159,0.386158,-0.286556
1980-01-06T00:24:58.050643543Z,-2.656367,2.607286,9.354745,-0.716656,0.288953,-0.189617
1980-01-06T00:24:58.070497397Z,-2.643199,2.135628,9.393052,-0.845420,0.273640,-0.077764
1980-01-06T00:24:58.090327761Z,-2.470816,2.221819,9.546281,-0.828509,0.260856,-0.051133
1980-01-06T00:24:58.110188386Z,-2.276886,2.333150,9.852738,-0.850213,0.161521,0.049002
1980-01-06T00:24:58.130059063Z,-2.426523,2.240973,10.049063,-0.874049,0.247008,0.116114
1980-01-06T00:24:58.169811772Z,-2.663549,2.400187,10.824784,-0.810799,0.409328,0.243945
1980-01-06T00:24:58.209535365Z,-2.795230,1.736993,10.729016,-0.745818,0.180962,0.435693
1980-01-06T00:24:58.229427761Z,-2.983175,1.640028,10.594941,-0.801078,0.148072,0.506000
1980-01-06T00:24:58.249330209Z,-3.208230,1.762132,10.585364,-0.800146,0.082425,0.610396
1980-01-06T00:24:58.269182449Z,-3.124433,1.505953,11.145607,-0.749147,0.029827,0.738228
1980-01-06T00:24:58.289023178Z,-2.966416,1.368286,11.088146,-0.721450,0.145675,0.846884
1980-01-06T00:24:58.348625261Z,-3.011906,1.061828,10.901399,-0.647414,0.021172,1.053546
1980-01-06T00:24:58.368487970Z,-3.052607,0.946907,10.954071,-0.634631,0.033289,1.179247
1980-01-06T00:24:58.388370001Z,-2.865860,0.691924,11.078569,-0.563524,0.244611,1.265533
1980-01-06T00:24:58.408263334Z,-2.688689,0.630872,11.078569,-0.513191,0.318247,1.331579
1980-01-06T00:24:58.428156876Z,-2.515109,0.604536,10.982801,-0.518916,0.212653,1.394430
1980-01-06T00:24:58.487730678Z,-1.763330,-0.349553,11.667543,-0.547412,0.157260,1.626657
1980-01-06T00:24:58.507602553Z,-1.519121,-0.117316,12.036250,-0.433829,0.282561,1.624527
1980-01-06T00:24:58.527466667Z,-1.452083,-0.120907,12.218210,-0.248206,0.221175,1.641571
1980-01-06T00:24:58.547448230Z,-1.341950,-0.569820,12.117653,-0.182693,0.057258,1.627723
1980-01-06T00:24:58.567468178Z,-1.386243,-0.733823,11.978789,-0.164051,-0.106127,1.613874
1980-01-06T00:24:58.587271615Z,-1.253365,-0.827197,11.950059,-0.167513,-0.189617,1.630919
1980-01-06T00:24:58.646672605Z,-0.621295,-0.937330,12.352285,0.069375,0.057125,1.649028
1980-01-06T00:24:58.666578178Z,-0.416591,-1.432930,12.476784,0.091879,0.154330,1.628788
1980-01-06T00:24:58.686437501Z,-0.037110,-1.476025,12.443265,0.187753,0.137419,1.542502
1980-01-06T00:24:58.706269219Z,0.272939,-1.479617,12.586917,0.278566,-0.085754,1.416800
1980-01-06T00:24:58.726172292Z,0.270545,-1.507150,12.529456,0.371777,-0.383761,1.278316
1980-01-06T00:24:58.746031407Z,0.125696,-1.523909,12.208633,0.428369,-0.577639,1.170725
1980-01-06T00:24:58.785781511Z,0.118513,-1.152808,11.701062,0.469382,-0.436492,1.039697
1980-01-06T00:24:58.805630209Z,0.149638,-0.775721,11.595717,0.658599,-0.330897,1.024783
1980-01-06T00:24:58.825536771Z,0.286107,-0.678756,11.638813,0.819987,-0.185090,0.966194
1980-01-06T00:24:58.845396146Z,0.562637,-0.632069,11.059416,0.920388,-0.097072,0.857537
1980-01-06T00:24:58.865246303Z,0.906205,-0.563834,10.719440,0.969789,-0.267781,0.802143
1980-01-06T00:24:58.885113074Z,1.048660,-0.469264,10.366894,0.949682,-0.416784,0.665790
1980-01-06T00:24:58.905013282Z,1.164779,-0.165200,10.137050,0.895487,-0.600542,0.531567
1980-01-06T00:24:58.944735678Z,1.154005,0.343568,10.026917,0.866326,-0.860733,0.284425
1980-01-06T00:24:58.984470678Z,1.198298,0.781707,9.921572,0.922785,-0.941826,0.083091
1980-01-06T00:24:59.004308907Z,1.256956,0.945710,9.490616,0.980708,-0.881772,-0.028762
1980-01-06T00:24:59.024226511Z,1.460463,1.035492,9.126697,0.999217,-0.823049,-0.112918
1980-01-06T00:24:59.044087657Z,1.550246,1.007959,8.686164,0.965262,-0.778974,-0.166181
1980-01-06T00:24:59.103882084Z,1.839944,1.748964,8.087613,0.795752,-0.744087,-0.376038
1980-01-06T00:24:59.123580938Z,1.911770,1.957260,7.857770,0.795752,-0.724246,-0.463390
1980-01-06T00:24:59.143430990Z,2.030283,2.038663,7.522582,0.799613,-0.701077,-0.532632
1980-01-06T00:24:59.163315209Z,2.260126,1.945289,7.086837,0.750212,-0.679505,-0.598678
1980-01-06T00:24:59.183169428Z,2.372654,1.984793,6.770802,0.664192,-0.638492,-0.679638
1980-01-06T00:24:59.203048698Z,2.640805,2.188300,6.507440,0.544217,-0.621714,-0.775512
1980-01-06T00:24:59.242765365Z,2.675520,2.596512,6.311116,0.462458,-0.673380,-0.927845
1980-01-06T00:24:59.262688542Z,2.632425,2.619257,6.004658,0.508663,-0.654205,-1.037567
1980-01-06T00:24:59.282532084Z,2.333150,2.364274,5.707777,0.510794,-0.642753,-1.088699
1980-01-06T00:24:59.302445209Z,2.050634,2.439692,5.597643,0.398009,-0.528637,-1.168594
1980-01-06T00:24:59.322260573Z,1.966837,2.746149,5.602432,0.262987,-0.444748,-1.203748
1980-01-06T00:24:59.342140000Z,1.893813,2.966416,5.645528,0.156194,-0.356863,-1.218661
1980-01-06T00:24:59.362036928Z,1.844732,3.289633,5.516241,0.119842,-0.207460,-1.303883
1980-01-06T00:24:59.401720938Z,1.256956,3.787627,5.535394,-0.012384,-0.239018,-1.411474
1980-01-06T00:24:59.421587032Z,0.931344,3.896563,5.669470,-0.055926,-0.310391,-1.412539
1980-01-06T00:24:59.441475782Z,0.553061,3.691859,5.487510,-0.164850,-0.303201,-1.426388
1980-01-06T00:24:59.461381563Z,0.286107,3.840300,5.487510,-0.310258,-0.227966,-1.446628
1980-01-06T00:24:59.481207605Z,-0.087388,4.345476,5.650316,-0.413189,-0.219977,-1.400822
1980-01-06T00:24:59.501313334Z,-0.699107,4.311957,5.798757,-0.474442,-0.200536,-1.349689
1980-01-06T00:24:59.560683334Z,-0.839168,3.541024,6.612785,-0.889096,-0.066579,-1.290034
1980-01-06T00:24:59.580573021Z,-1.079785,3.803190,6.804321,-0.942492,0.044741,-1.281512
1980-01-06T00:24:59.600443386Z,-1.286883,3.813963,7.230489,-0.929442,0.010253,-1.200552
1980-01-06T00:24:59.620372396Z,-1.582567,3.318364,7.632715,-0.829840,-0.004927,-1.125984
1980-01-06T00:24:59.640195105Z,-1.912967,3.201048,7.675811,-0.714392,0.071373,-1.081242
1980-01-06T00:24:59.660076615Z,-2.251747,3.240552,7.967903,-0.660597,0.121706,-1.017327
1980-01-06T00:24:59.699786979Z,-2.358289,3.317167,8.197746,-0.832903,0.194277,-0.853276
1980-01-06T00:24:59.719684011Z,-2.647987,3.716998,9.600749,-0.317182,0.226502,-0.920388
1980-01-06T00:24:59.739559011Z,-2.943671,3.337517,8.987833,-0.492152,0.310258,-0.810666
1980-01-06T00:24:59.759410209Z,-2.886210,3.046622,8.820239,-0.666988,0.320112,-0.697748
1980-01-06T00:24:59.779269167Z,-3.015497,3.451242,9.461885,-0.785765,0.352070,-0.605070
1980-01-06T00:24:59.799143229Z,-2.870648,3.554192,9.878476,-1.020656,0.376970,-0.412257
1980-01-06T00:24:59.819018959Z,-2.698265,3.453636,9.715671,-0.885767,0.340618,-0.330232
1980-01-06T00:24:59.858780261Z,-2.874239,3.640384,9.801862,-0.702009,0.072571,-0.190682
1980-01-06T00:24:59.878607969Z,-3.058593,2.355895,9.145850,-0.656202,-0.117845,-0.049002
1980-01-06T00:24:59.898479740Z,-2.615665,2.573767,10.802638,-0.843023,0.024102,0.004261
1980-01-06T00:24:59.918415573Z,-2.822764,2.713828,10.529699,-0.770052,0.110255,0.009587
1980-01-06T00:24:59.938225886Z,-2.637213,2.272097,9.959879,-0.614524,0.010653,0.108657
1980-01-06T00:24:59.958119375Z,-2.412158,2.294842,10.807426,-0.772050,-0.026498,0.251402
1980-01-06T00:25:00.017705365Z,-1.975216,2.267309,10.864887,-0.572313,-0.189084,0.439954
1980-01-06T00:25:00.037588854Z,-1.720234,1.995567,10.989386,-0.631568,-0.192014,0.551807
1980-01-06T00:25:00.057654531Z,-1.540669,1.875857,11.235091,-0.555535,-0.071639,0.525708
1980-01-06T00:25:00.077333646Z,-1.333570,1.759738,11.024401,-0.572313,-0.039681,0.507598
1980-01-06T00:25:00.097175886Z,-1.302446,1.522712,11.230303,-0.573644,-0.094143,0.593884
1980-01-06T00:25:00.117057084Z,-0.931344,1.381454,11.388320,-0.511593,-0.096540,0.589623
1980-01-06T00:25:00.156782344Z,-0.414197,0.924162,10.679636,-0.437690,-0.088017,0.557665
1980-01-06T00:25:00.176639531Z,-0.149638,0.471658,10.569503,-0.433962,-0.030360,0.525708
1980-01-06T00:25:00.196532344Z,-0.245406,0.319626,10.904691,-0.327435,0.088417,0.445813
1980-01-06T00:25:00.216448958Z,-0.203507,0.296881,10.550349,-0.452338,0.210390,0.411724
1980-01-06T00:25:00.236312761Z,0.090980,0.183156,11.201571,-0.410659,0.136221,0.384028
1980-01-06T00:25:00.256154063Z,0.322020,0.181959,11.215937,-0.395879,0.029295,0.319046
1980-01-06T00:25:00.276022917Z,0.444124,0.159214,11.109096,-0.356597,-0.099868,0.266316
1980-01-06T00:25:00.315749948Z,0.214281,-0.140061,10.146626,-0.331031,-0.299605,0.194943
1980-01-06T00:25:00.335653594Z,0.032322,-0.132878,9.959879,-0.329433,-0.303467,0.178964
1980-01-06T00:25:00.355518958Z,-0.264559,-0.014365,9.758766,-0.304799,-0.228233,0.143811
1980-01-06T00:25:00.375390104Z,-0.202310,-0.185551,10.007763,-0.308926,-0.203998,0.149137
1980-01-06T00:25:00.395259635Z,-0.063446,-0.056264,10.170568,-0.263919,-0.296143,0.121440
1980-01-06T00:25:00.415134010Z,-0.143652,-0.015562,10.553641,-0.202666,-0.379500,0.152333
1980-01-06T00:25:00.474709219Z,-0.367510,-0.333991,9.883265,-0.143811,-0.065247,0.010653
1980-01-06T00:25:00.494575052Z,2.323573,1.601721,13.287820,-1.780455,-1.129313,0.756337
1980-01-06T00:25:00.514389271Z,-0.490811,-0.324414,9.203311,0.318514,-0.675910,0.015979
1980-01-06T00:25:00.534313229Z,-0.417788,-0.441730,9.876680,0.077365,-0.094675,-0.038349
1980-01-06T00:25:00.554206458Z,0.280122,-0.246603,9.862315,0.013715,-0.096140,0.064981
1980-01-06T00:25:00.574073802Z,0.353145,-0.544681,9.589376,-0.089349,-0.138751,0.054328
1980-01-06T00:25:00.633887500Z,0.039504,-0.186748,9.780912,-0.036485,-0.010653,0.028762
1980-01-06T00:25:00.653545104Z,-0.046687,-0.198719,9.804854,-0.048469,-0.012117,0.025566
1980-01-06T00:25:00.673396927Z,-0.124498,-0.307655,9.771336,-0.053796,-0.012117,0.004261
1980-01-06T00:25:00.693288906Z,-0.057461,-0.383072,9.723452,-0.036885,-0.013982,-0.011718
1980-01-06T00:25:00.713346458Z,0.002394,-0.299275,9.733028,-0.000666,-0.012517,-0.013848
1980-01-06T00:25:00.733020625Z,-0.043096,-0.227449,9.747394,0.013715,-0.007457,-0.012783
1980-01-06T00:25:00.792628333Z,0.011971,-0.144849,9.560646,0.013848,-0.023436,-0.038349
1980-01-06T00:25:00.812528437Z,-0.113725,-0.586579,9.512762,0.033289,-0.024767,-0.019175
1980-01-06T00:25:00.832353646Z,0.025139,0.010774,9.862315,0.017976,-0.015579,-0.014914
1980-01-06T00:25:00.852289531Z,-0.023942,-0.123301,9.771336,0.005060,-0.008922,-0.013848
1980-01-06T00:25:00.872102396Z,0.005986,-0.180762,9.780912,0.003329,-0.009721,-0.012783
1980-01-06T00:25:00.931736927Z,-0.002394,-0.201113,9.756970,0.003995,-0.007590,-0.012783
1980-01-06T00:25:00.951602812Z,-0.032322,-0.195127,9.771336,0.001332,-0.009321,-0.013848
1980-01-06T00:25:00.971468281Z,-0.005986,-0.199916,9.747394,0.001731,-0.008123,-0.013848
1980-01-06T00:25:00.991337448Z,-0.028730,-0.198719,9.747394,0.001465,-0.009321,-0.013848
1980-01-06T00:25:01.011188125Z,-0.007183,-0.199916,9.747394,-0.000266,-0.008655,-0.013848
1980-01-06T00:25:01.031109062Z,-0.016759,-0.198719,9.761759,-0.001198,-0.007723,-0.013848
1980-01-06T00:25:01.090687031Z,-0.005986,-0.193930,9.685144,-0.001332,-0.009454,-0.014914
1980-01-06T00:25:01.110609791Z,-0.033519,-0.193930,9.747394,-0.000932,-0.008788,-0.013848
1980-01-06T00:25:01.130451875Z,-0.019154,-0.202310,9.761759,-0.002131,-0.007856,-0.013848
1980-01-06T00:25:01.150331198Z,-0.004788,-0.174777,9.756970,-0.003063,-0.008788,-0.013848
1980-01-06T00:25:01.170177448Z,-0.008380,-0.165200,9.771336,-0.005060,-0.007723,-0.013848
