timestamp,accel_x,accel_y,accel_z,gyro_x,gyro_y,gyro_z
2025-08-05T19:36:56.217205501Z,0.014365,-0.185551,9.645341,0.000799,-0.007856,-0.014381
2025-08-05T19:36:56.237056922Z,-0.007183,-0.172383,9.731532,0.001065,-0.008389,-0.014381
2025-08-05T19:36:56.276774396Z,-0.062249,-0.199916,9.664495,-0.001864,-0.008655,-0.015446
2025-08-05T19:36:56.296656019Z,-0.016759,-0.226252,9.712379,-0.001997,-0.008788,-0.014381
2025-08-05T19:36:56.316509211Z,0.003591,-0.211887,9.726744,-0.003862,-0.009188,-0.014381
2025-08-05T19:36:56.336387814Z,0.001197,-0.226252,9.702802,-0.003862,-0.009055,-0.014381
2025-08-05T19:36:56.356275998Z,-0.038307,-0.204704,9.717167,-0.002663,-0.009188,-0.014381
2025-08-05T19:36:56.376134084Z,-0.022745,-0.195127,9.717167,-0.002264,-0.008389,-0.014381
2025-08-05T19:36:56.396001335Z,-0.009577,-0.192733,9.726744,-0.002397,-0.007723,-0.014381
2025-08-05T19:36:56.435737451Z,-0.001197,-0.204704,9.707590,-0.002929,-0.007590,-0.014381
2025-08-05T19:36:56.455564867Z,-0.020351,-0.195127,9.717167,-0.003063,-0.009055,-0.014381
2025-08-05T19:36:56.475440658Z,-0.033519,-0.187945,9.721955,-0.003063,-0.009321,-0.014381
2025-08-05T19:36:56.495278071Z,-0.037110,-0.195127,9.721058,-0.003329,-0.007856,-0.013848
2025-08-05T19:36:56.515203331Z,-0.020351,-0.217872,9.706693,-0.003462,-0.008522,-0.013848
2025-08-05T19:36:56.535062875Z,0.005986,-0.219069,9.697116,-0.002264,-0.008123,-0.013848
2025-08-05T19:36:56.594665305Z,0.000000,-0.189142,9.716269,-0.002663,-0.007989,-0.013848
2025-08-05T19:36:56.614508291Z,-0.016759,-0.203507,9.706693,-0.002663,-0.008389,-0.014914
2025-08-05T19:36:56.634388872Z,-0.011971,-0.208296,9.706693,-0.003995,-0.009454,-0.013848
2025-08-05T19:36:56.654234982Z,-0.047884,-0.226252,9.706693,-0.002264,-0.008123,-0.013848
2025-08-05T19:36:56.674073541Z,-0.028730,-0.207098,9.711481,-0.003063,-0.008788,-0.013848
2025-08-05T19:36:56.733756735Z,-0.003591,-0.207098,9.721058,-0.002264,-0.008256,-0.014914
2025-08-05T19:36:56.753573788Z,-0.016759,-0.211887,9.706693,-0.001065,-0.008123,-0.013848
2025-08-05T19:36:56.773435520Z,-0.015562,-0.203507,9.706693,-0.000266,-0.008256,-0.013848
2025-08-05T19:36:56.793308551Z,-0.007183,-0.205901,9.706693,-0.002397,-0.008389,-0.013848
2025-08-05T19:36:56.813184186Z,-0.016759,-0.184354,9.706693,-0.002264,-0.007989,-0.012783
2025-08-05T19:36:56.833049198Z,-0.010774,-0.210690,9.697116,-0.001997,-0.009587,-0.013848
2025-08-05T19:36:56.872852904Z,-0.107739,-0.374693,9.682750,-0.009854,-0.016512,-0.013848
2025-08-05T19:36:56.892646472Z,0.047884,-0.051475,9.620501,-0.027564,0.007723,-0.014914
2025-08-05T19:36:56.912519347Z,-0.152032,-0.013168,9.850345,0.004394,-0.005593,-0.014914
2025-08-05T19:36:56.932395086Z,0.031125,-0.232238,9.682750,-0.004661,-0.021705,-0.013848
2025-08-05T19:36:56.952254891Z,-0.015562,-0.186748,9.725846,-0.014248,-0.004394,-0.014914
2025-08-05T19:36:56.972097511Z,0.089783,-0.277727,9.610924,-0.012650,-0.008123,-0.009587
2025-08-05T19:36:57.031683955Z,-0.016759,-0.567426,9.385869,-0.036885,-0.017311,-0.021305
2025-08-05T19:36:57.051530638Z,0.111330,-0.458490,9.644443,-0.032357,0.008389,-0.017044
2025-08-05T19:36:57.091282688Z,-0.104148,-0.660800,9.764153,-0.101999,0.007191,-0.041545
2025-08-05T19:36:57.111159989Z,-0.049081,-0.037110,10.046669,-0.148737,0.004661,-0.015979
2025-08-05T19:36:57.131016982Z,-0.076614,-0.336385,9.729736,-0.218912,-0.004927,-0.010120
2025-08-05T19:36:57.170773771Z,-0.068235,-0.489614,9.662699,-0.099336,0.001997,-0.011185
2025-08-05T19:36:57.190643574Z,-0.081403,-0.602142,9.490316,-0.016778,-0.011718,-0.012251
2025-08-05T19:36:57.210486715Z,-0.047884,-0.427365,9.701006,0.065381,-0.010519,-0.013316
2025-08-05T19:36:57.230353341Z,0.019154,-0.557849,9.389760,0.139150,-0.007856,0.001598
2025-08-05T19:36:57.250218822Z,-0.013168,-0.389058,9.696218,0.251802,-0.013982,0.013316
2025-08-05T19:36:57.270102684Z,-0.045490,-0.067038,9.997887,0.124902,-0.024102,0.017577
2025-08-05T19:36:57.329684910Z,0.002394,-0.311246,9.691429,0.081226,-0.020773,0.070840
2025-08-05T19:36:57.349541069Z,0.391452,-0.295684,9.715371,-0.027963,-0.011984,0.165648
2025-08-05T19:36:57.369428629Z,0.596156,-0.363919,9.744102,0.065247,-0.015713,0.144343
2025-08-05T19:36:57.389278019Z,0.860716,-0.968455,9.705794,0.033955,-0.016378,0.139017
2025-08-05T19:36:57.409143812Z,0.871489,-0.757765,9.686641,0.043276,-0.017044,0.104928
2025-08-05T19:36:57.429017780Z,0.900220,-0.719458,9.815928,0.031026,-0.011851,0.036752
2025-08-05T19:36:57.468757802Z,1.306037,-0.676362,9.926061,-0.086153,0.041945,-0.022903
2025-08-05T19:36:57.488603703Z,1.185130,-0.788889,10.060136,-0.088683,0.140615,-0.146474
2025-08-05T19:36:57.508469236Z,1.082179,-0.695516,10.266038,-0.094276,0.347942,-0.213585
2025-08-05T19:36:57.528327947Z,0.907402,-0.707487,10.007463,-0.179364,0.562193,-0.228499
2025-08-05T19:36:57.548212746Z,1.042675,-0.927753,9.978733,-0.242880,0.656335,-0.256196
2025-08-05T19:36:57.568064896Z,1.012747,-1.119289,10.026617,-0.376571,0.551540,-0.255131
2025-08-05T19:36:57.607786693Z,0.596156,-1.048660,10.409690,-0.216914,0.124902,-0.446878
2025-08-05T19:36:57.627679564Z,0.402226,-0.907402,10.457574,-0.200802,0.034488,-0.477771
2025-08-05T19:36:57.647509791Z,0.330400,-0.823605,10.510246,-0.103597,0.067644,-0.580036
2025-08-05T19:36:57.667584447Z,0.292093,-0.653617,10.567707,-0.062851,0.071772,-0.610929
2025-08-05T19:36:57.687290221Z,0.426168,-0.563834,10.692205,0.009854,0.071240,-0.659931
2025-08-05T19:36:57.707127634Z,0.536301,-0.687136,10.835857,0.059655,0.116247,-0.739826
2025-08-05T19:36:57.766916223Z,0.158017,-0.518345,11.022605,0.163518,0.137286,-0.965661
2025-08-05T19:36:57.786604814Z,-0.312443,-0.477643,10.950779,0.191614,0.051798,-0.964596
2025-08-05T19:36:57.806689988Z,-0.611719,-0.657208,10.725724,0.143944,0.084955,-0.916659
2025-08-05T19:36:57.826316821Z,-0.608127,-0.357933,11.065701,0.194677,0.204131,-0.892158
2025-08-05T19:36:57.846178552Z,-0.575805,-0.496797,11.080066,0.272175,0.251535,-0.914529
2025-08-05T19:36:57.866049188Z,-0.661997,-0.518345,11.151893,0.289885,0.160322,-0.946487
2025-08-05T19:36:57.905785304Z,-1.553837,-0.348356,11.429620,0.368581,-0.125967,-0.845287
2025-08-05T19:36:57.925664063Z,-1.796848,0.197522,11.918036,0.580435,-0.194810,-0.826112
2025-08-05T19:36:57.945550269Z,-2.269703,0.150835,11.712135,0.246342,0.055926,-0.638626
2025-08-05T19:36:57.965602845Z,-2.466028,0.343568,11.898883,0.528770,0.231695,-0.624777
2025-08-05T19:36:57.985442706Z,-2.263718,0.519542,12.693758,0.735298,0.037018,-0.547013
2025-08-05T19:36:58.005084588Z,-2.712631,0.308852,12.387300,0.745684,-0.385892,-0.398941
2025-08-05T19:36:58.064700831Z,-3.269282,0.599748,10.792762,1.166464,-0.069242,-0.238086
2025-08-05T19:36:58.084586560Z,-3.392584,1.171962,10.835857,1.216131,0.061785,-0.128364
2025-08-05T19:36:58.104489268Z,-3.445256,1.696292,11.036970,1.295094,0.125035,0.004794
2025-08-05T19:36:58.124357237Z,-3.681085,1.985990,11.472715,1.362472,0.210789,0.104928
2025-08-05T19:36:58.144409164Z,-3.851074,2.012326,10.874165,1.430516,0.324639,0.225303
2025-08-05T19:36:58.164314685Z,-3.837905,2.070984,10.998663,1.627589,0.377503,0.282827
2025-08-05T19:36:58.223714737Z,-3.509900,2.630031,9.274838,1.638775,0.054728,0.767522
2025-08-05T19:36:58.243536612Z,-3.525462,2.722207,8.551789,1.546230,0.034088,0.868722
2025-08-05T19:36:58.263407705Z,-3.325546,2.977190,8.173506,1.436242,0.076166,1.029577
2025-08-05T19:36:58.283351039Z,-3.143587,3.325546,7.603685,1.400422,0.271909,1.193628
2025-08-05T19:36:58.303141039Z,-2.913743,3.687071,7.589320,1.356347,0.537292,1.336373
2025-08-05T19:36:58.323030726Z,-2.481590,3.702633,6.938097,1.268862,0.737162,1.466335
2025-08-05T19:36:58.362764737Z,-1.527501,3.948039,6.234202,1.017327,0.495081,1.553687
2025-08-05T19:36:58.382631716Z,-1.580173,3.983952,6.148011,0.937698,0.362190,1.533447
2025-08-05T19:36:58.402505518Z,-1.655591,3.981557,5.980417,0.836232,0.300804,1.563274
2025-08-05T19:36:58.422384372Z,-1.569399,4.000711,5.831976,0.739293,0.274305,1.650626
2025-08-05T19:36:58.442267237Z,-1.391031,4.042610,6.018724,0.651409,0.402536,1.674062
2025-08-05T19:36:58.462144945Z,-1.063026,4.049792,5.582979,0.515055,0.696949,1.692171
2025-08-05T19:36:58.482040205Z,-0.750582,4.019865,5.539884,0.456865,0.773914,1.716672
2025-08-05T19:36:58.521729060Z,0.377087,3.700239,5.262156,0.153132,0.619584,1.676192
2025-08-05T19:36:58.541574528Z,0.695516,3.730166,5.276521,0.007324,0.470846,1.606950
2025-08-05T19:36:58.561480570Z,0.830788,3.939659,5.501576,-0.089482,0.307195,1.562209
2025-08-05T19:36:58.581348955Z,1.097741,3.811569,5.626075,-0.070174,0.260723,1.501489
2025-08-05T19:36:58.601181872Z,1.340753,3.457227,5.616498,-0.087352,0.322775,1.449291
2025-08-05T19:36:58.621089684Z,1.531092,3.417723,5.472846,-0.149536,0.500008,1.343830
2025-08-05T19:36:58.680665778Z,1.716643,3.396175,5.539884,-0.284159,0.543684,1.081775
2025-08-05T19:36:58.700559007Z,1.798046,3.053804,5.544672,-0.288154,0.598811,0.983771
2025-08-05T19:36:58.720429268Z,1.714248,2.634819,5.611710,-0.396811,0.624777,0.899615
2025-08-05T19:36:58.740273434Z,1.659182,2.579752,5.994782,-0.580169,0.549143,0.853809
2025-08-05T19:36:58.760200518Z,1.545457,2.574964,6.674735,-0.664325,0.467784,0.811198
2025-08-05T19:36:58.780047705Z,1.468843,2.929306,7.503129,-0.628239,0.447278,0.780306
2025-08-05T19:36:58.839607341Z,1.479617,2.940080,7.786542,-0.493084,0.655803,0.600809
2025-08-05T19:36:58.859528487Z,1.453280,2.624045,7.968502,-0.648745,0.510794,0.577373
2025-08-05T19:36:58.879421455Z,1.264138,2.590526,8.203134,-0.695351,0.418382,0.531567
2025-08-05T19:36:58.899249893Z,1.347936,2.566584,8.365939,-0.689225,0.511193,0.445280
2025-08-05T19:36:58.919129320Z,1.233014,3.064578,8.523956,-0.669119,0.568718,0.357929
2025-08-05T19:36:58.978759997Z,1.375469,2.525883,8.485649,-0.620516,0.846618,0.173638
2025-08-05T19:36:58.998552601Z,0.978031,2.704251,8.634089,-0.553538,0.901746,0.075634
2025-08-05T19:36:59.018466664Z,0.878672,2.461239,8.816050,-0.569117,0.876712,-0.049002
2025-08-05T19:36:59.038346455Z,0.817620,2.541445,8.921394,-0.592952,0.715191,-0.093743
2025-08-05T19:36:59.058205309Z,0.469264,2.339135,8.509591,-0.486692,0.724246,-0.188552
2025-08-05T19:36:59.078090153Z,0.089783,1.935712,8.265383,-0.523710,0.792290,-0.319579
2025-08-05T19:36:59.137688851Z,-0.381875,2.482787,9.831191,-0.638492,0.525308,-0.381364
2025-08-05T19:36:59.157582341Z,-0.215478,1.964442,10.487202,-0.589623,0.538757,-0.406931
2025-08-05T19:36:59.177436820Z,-0.469264,1.492785,9.242217,-0.379101,0.743154,-0.524110
2025-08-05T19:36:59.197341768Z,-0.454898,1.240196,9.888652,-0.394414,0.878576,-0.602939
2025-08-05T19:36:59.217155205Z,-0.831985,1.650802,9.701904,-0.496013,0.962332,-0.654072
2025-08-05T19:36:59.237048278Z,-1.203086,1.845930,9.788095,-0.602140,0.825313,-0.650876
2025-08-05T19:36:59.276755622Z,-0.820014,1.963245,11.435306,-0.534762,0.492551,-0.866059
2025-08-05T19:36:59.296662497Z,-0.932542,1.933318,11.382633,-0.190682,0.189217,-1.055676
2025-08-05T19:36:59.316508851Z,-1.126472,1.446098,11.353903,-0.039947,-0.248739,-1.061002
2025-08-05T19:36:59.336368851Z,-1.431733,0.984017,11.952454,-0.060187,-0.391618,-1.051415
2025-08-05T19:36:59.356272080Z,-1.886631,0.846350,12.153566,-0.143278,-0.223572,-1.118527
2025-08-05T19:36:59.376150882Z,-2.081758,0.818817,12.407351,-0.179231,-0.135688,-1.127049
2025-08-05T19:36:59.416003278Z,-1.531092,1.142034,11.815984,-0.158857,0.060454,-1.098287
2025-08-05T19:36:59.435721820Z,-1.465251,0.881066,11.308414,-0.100401,0.052864,-1.138767
2025-08-05T19:36:59.455584997Z,-1.867477,0.539892,11.001955,-0.129829,-0.078297,-1.123853
2025-08-05T19:36:59.475649320Z,-1.969231,0.478840,10.628460,-0.249272,-0.063516,-1.101483
2025-08-05T19:36:59.495361507Z,-1.980005,0.721852,10.374675,-0.290417,0.014248,-1.114266
2025-08-05T19:36:59.515196455Z,-1.889025,0.808043,10.341156,-0.281762,-0.014914,-1.147289
2025-08-05T19:36:59.535133643Z,-1.964442,0.757765,10.369886,-0.233692,-0.180828,-1.198421
2025-08-05T19:36:59.555142080Z,-2.127248,0.574608,10.432136,-0.206128,-0.437291,-1.216531
2025-08-05T19:36:59.594697080Z,-2.348712,0.778116,10.192716,-0.239018,-0.456599,-1.201617
2025-08-05T19:36:59.614551820Z,-2.375048,0.750582,10.283695,-0.194144,-0.353401,-1.176051
2025-08-05T19:36:59.634421976Z,-2.476802,0.585382,10.446501,-0.124769,-0.217181,-1.157941
2025-08-05T19:36:59.654292861Z,-2.432509,0.496797,10.676344,-0.072172,-0.114915,-1.129179
2025-08-05T19:36:59.674188695Z,-2.217031,0.486023,10.978013,-0.060853,-0.091346,-1.081242
2025-08-05T19:36:59.694249684Z,-1.893813,0.554258,11.519103,-0.008389,-0.027830,-1.054611
2025-08-05T19:36:59.714111872Z,-1.830367,0.706290,12.002731,0.113451,0.046073,-1.086569
2025-08-05T19:36:59.733767913Z,-1.839944,0.689530,12.280459,0.270311,0.033822,-1.137701
2025-08-05T19:36:59.753676611Z,-2.196680,0.616507,12.132018,0.399607,-0.025966,-1.204813
2025-08-05T19:36:59.773549111Z,-2.424129,0.669179,11.930905,0.405066,-0.219844,-1.188834
2025-08-05T19:36:59.793379684Z,-2.961627,0.841562,12.079346,0.433962,-0.341284,-1.139832
2025-08-05T19:36:59.813278747Z,-3.277662,0.985214,12.275671,0.509063,-0.318381,-1.075916
2025-08-05T19:36:59.833117601Z,-3.278859,1.209072,12.630013,0.578704,-0.233293,-0.999217
2025-08-05T19:36:59.853019997Z,-3.288436,1.533486,12.735357,0.672980,-0.222107,-0.903343
2025-08-05T19:36:59.892750726Z,-3.442862,2.060210,13.190256,1.069525,-0.455533,-0.738228
2025-08-05T19:36:59.912613747Z,-3.781641,2.082955,13.147161,1.020656,-0.598944,-0.621049
2025-08-05T19:36:59.932474892Z,-4.098873,2.237381,12.720992,1.101083,-0.627307,-0.523044
2025-08-05T19:36:59.952376820Z,-4.393360,2.492364,12.754511,1.265933,-0.646215,-0.411192
2025-08-05T19:36:59.972224528Z,-4.657919,2.742558,12.529456,1.454751,-0.613991,-0.292947
2025-08-05T19:36:59.992081767Z,-4.857835,2.875436,12.213422,1.555152,-0.547013,-0.147006
2025-08-05T19:37:00.051680465Z,-4.818331,3.191471,9.905411,1.592036,-0.253666,0.297209
2025-08-05T19:37:00.071567184Z,-4.724957,3.484761,9.857527,1.850230,-0.347276,0.443150
2025-08-05T19:37:00.091418747Z,-4.650737,3.906140,9.967660,1.970072,-0.401471,0.560329
2025-08-05T19:37:00.111321090Z,-4.784812,3.875015,9.187150,1.905490,-0.464988,0.775512
2025-08-05T19:37:00.131168642Z,-4.631583,3.693056,8.377911,1.813611,-0.469115,0.987499
2025-08-05T19:37:00.151041299Z,-4.144363,3.611653,7.688380,1.759948,-0.312122,1.129179
2025-08-05T19:37:00.210639684Z,-2.935291,4.305972,5.830480,1.501489,0.080960,1.489238
2025-08-05T19:37:00.230511194Z,-2.212242,4.309563,5.682039,1.296426,0.021838,1.643702
2025-08-05T19:37:00.250382861Z,-1.890222,4.520253,4.168904,1.311339,0.065381,1.629853
2025-08-05T19:37:00.270243851Z,-1.461660,4.948815,4.159327,1.105078,0.063383,1.714009
2025-08-05T19:37:00.290130778Z,-1.411382,4.967968,3.431489,0.910134,0.103331,1.716140
2025-08-05T19:37:00.310004163Z,-0.908600,4.279635,3.378817,0.584963,0.197207,1.718270
2025-08-05T19:37:00.349751924Z,0.383072,3.065775,3.445855,0.262055,0.386824,1.820535
2025-08-05T19:37:00.369598069Z,1.079785,2.795230,3.512892,0.131560,0.479901,1.810948
2025-08-05T19:37:00.389463434Z,1.531092,2.410961,3.522469,0.048869,0.451006,1.766207
2025-08-05T19:37:00.409376976Z,2.214637,2.059013,3.800197,-0.061785,0.408262,1.731053
2025-08-05T19:37:00.429187913Z,2.657564,1.916559,4.216788,-0.158857,0.469515,1.700161
2025-08-05T19:37:00.449092965Z,2.882619,1.902193,4.298191,-0.238486,0.693886,1.613874
2025-08-05T19:37:00.508714163Z,2.937685,1.902193,5.160103,-0.325571,0.959669,1.293230
2025-08-05T19:37:00.528539788Z,2.912546,1.994370,5.289390,-0.377103,0.922252,1.193095
2025-08-05T19:37:00.548523642Z,3.010709,2.014721,5.672462,-0.524243,0.882038,1.095091
2025-08-05T19:37:00.568542392Z,3.002329,2.534262,6.606201,-0.678040,0.752076,1.033306
2025-08-05T19:37:00.588181819Z,2.942474,2.772485,7.305308,-0.735831,0.644751,1.016261
2025-08-05T19:37:00.608048590Z,3.197456,2.670732,7.539940,-0.746883,0.860467,0.935301
2025-08-05T19:37:00.647786038Z,3.623624,3.457227,8.071452,-0.828376,1.096955,0.704139
2025-08-05T19:37:00.667651142Z,3.622427,3.368642,8.172009,-0.908803,0.985502,0.578438
2025-08-05T19:37:00.687506611Z,3.181894,3.233369,8.373122,-0.923184,0.912931,0.452737
2025-08-05T19:37:00.707413642Z,2.789245,2.966416,8.804078,-0.973784,0.902145,0.323840
2025-08-05T19:37:00.727270309Z,2.521094,2.835932,9.450513,-1.007340,0.783501,0.267381
2025-08-05T19:37:00.747169371Z,1.953669,2.877831,9.349957,-0.909469,0.842757,0.158724
2025-08-05T19:37:00.767039371Z,1.690306,2.523489,9.340380,-0.811331,0.925714,0.030893
2025-08-05T19:37:00.806765882Z,1.651999,2.076970,9.699510,-0.943957,0.855407,-0.014914
2025-08-05T19:37:00.826605048Z,1.325191,2.487576,9.776124,-0.828509,0.959936,-0.082025
2025-08-05T19:37:00.846483225Z,1.203086,2.357092,9.785701,-0.679505,1.057674,-0.202400
2025-08-05T19:37:00.866363538Z,1.339556,1.849521,9.833585,-0.664192,0.915461,-0.297209
2025-08-05T19:37:00.886212496Z,1.406593,1.715446,9.881469,-0.713727,0.708667,-0.366451
2025-08-05T19:37:00.906103434Z,1.112107,1.902193,9.871892,-0.655403,0.722116,-0.513457
2025-08-05T19:37:00.965726298Z,-0.049081,1.646014,10.345944,-0.649944,0.621448,-0.684964
2025-08-05T19:37:00.985559371Z,-0.195127,1.717840,10.513538,-0.591354,0.564723,-0.688160
2025-08-05T19:37:01.005450205Z,-0.323217,1.225831,10.393828,-0.537958,0.657001,-0.765924
2025-08-05T19:37:01.025294163Z,-0.203507,1.338359,11.011532,-0.579903,0.517052,-0.883103
2025-08-05T19:37:01.045169163Z,-0.663194,1.532289,11.198280,-0.572979,0.187620,-0.859668
2025-08-05T19:37:01.065046142Z,-1.156399,1.388637,11.523891,-0.504269,0.111986,-0.851146
2025-08-05T19:37:01.104877392Z,-1.470040,1.466449,11.456854,-0.322375,0.369646,-0.790426
2025-08-05T19:37:01.124666559Z,-0.997185,1.430536,11.394605,-0.294945,0.423442,-0.823449
2025-08-05T19:37:01.144538330Z,-0.984017,1.200692,11.322779,-0.264185,0.263653,-0.868190
2025-08-05T19:37:01.164325309Z,-1.186327,1.034295,10.925341,-0.266316,0.060321,-0.874581
2025-08-05T19:37:01.184255361Z,-1.406593,1.060631,10.891822,-0.235823,-0.034621,-0.860733
2025-08-05T19:37:01.204167548Z,-1.345541,1.055843,10.690709,-0.184424,0.019042,-0.877777
2025-08-05T19:37:01.224020205Z,-1.266533,1.094150,10.436924,-0.181228,0.108790,-0.928910
2025-08-05T19:37:01.263721923Z,-1.525106,0.974440,10.609306,-0.203598,0.007457,-0.891626
2025-08-05T19:37:01.283598173Z,-1.703475,0.869095,10.518327,-0.147140,0.008655,-0.900148
2025-08-05T19:37:01.303466663Z,-1.962048,0.664391,10.350733,-0.129962,-0.038083,-0.859668
2025-08-05T19:37:01.323331559Z,-2.175132,0.744597,10.432136,-0.123571,-0.039148,-0.826644
2025-08-05T19:37:01.343205725Z,-2.069787,0.833182,10.341156,-0.100934,-0.031159,-0.796817
2025-08-05T19:37:01.363099527Z,-1.970428,0.834379,10.360310,-0.033156,-0.048203,-0.775512
2025-08-05T19:37:01.422687288Z,-2.214637,0.482432,10.082582,-0.045673,-0.032224,-0.689225
2025-08-05T19:37:01.442569892Z,-1.984793,0.514753,10.092158,-0.078963,-0.031292,-0.664724
2025-08-05T19:37:01.462409892Z,-1.977611,0.462081,9.962872,-0.078696,-0.097338,-0.651941
2025-08-05T19:37:01.482304475Z,-2.224213,0.446519,10.073005,-0.072438,-0.122372,-0.604004
2025-08-05T19:37:01.502352809Z,-2.243367,0.492008,10.101735,-0.058589,-0.029295,-0.573112
2025-08-05T19:37:01.522238017Z,-1.972822,0.663194,10.044274,-0.026632,0.016112,-0.578438
2025-08-05T19:37:01.581653069Z,-2.290054,0.654814,9.871892,-0.033955,-0.130362,-0.503870
2025-08-05T19:37:01.601539892Z,-2.415750,0.729034,10.096947,-0.004527,-0.103730,-0.472977
2025-08-05T19:37:01.621603642Z,-2.431312,0.899023,10.101735,0.063250,-0.069242,-0.466585
2025-08-05T19:37:01.641275361Z,-2.643199,0.719458,9.867104,0.113584,-0.051532,-0.442084
2025-08-05T19:37:01.661154111Z,-2.631228,0.730232,9.704298,0.078563,-0.046073,-0.366451
2025-08-05T19:37:01.681008538Z,-2.616863,0.927753,9.737817,0.074169,-0.028363,-0.309992
2025-08-05T19:37:01.720710986Z,-2.736573,0.997185,9.598953,0.101999,0.029694,-0.202400
2025-08-05T19:37:01.740625986Z,-2.657564,1.097741,9.627684,0.099868,-0.007457,-0.135288
2025-08-05T19:37:01.760531298Z,-2.712631,0.997185,9.531916,0.112385,-0.021305,-0.084156
2025-08-05T19:37:01.780354736Z,-2.728193,0.972046,9.445724,0.080294,-0.005459,-0.014914
2025-08-05T19:37:01.800221715Z,-2.553416,0.928950,9.436148,0.038483,-0.000266,0.050067
2025-08-05T19:37:01.820282131Z,-2.294842,0.944513,9.546281,0.002929,-0.021971,0.122505
2025-08-05T19:37:01.840158069Z,-2.167950,0.916979,9.575011,0.025566,0.016645,0.141680
2025-08-05T19:37:01.879733954Z,-2.158373,0.780510,9.493608,0.038616,-0.010253,0.187486
2025-08-05T19:37:01.899585725Z,-2.093729,0.822408,9.455301,-0.000266,-0.019042,0.214118
2025-08-05T19:37:01.919449944Z,-2.057816,0.922965,9.407417,-0.027564,-0.035420,0.245011
2025-08-05T19:37:01.939319996Z,-2.194286,1.072602,9.507974,-0.023303,-0.056459,0.286556
2025-08-05T19:37:01.959253538Z,-2.311602,1.057040,9.469666,-0.022371,0.007324,0.312122
2025-08-05T19:37:01.979049475Z,-2.263718,1.045069,9.498397,-0.061119,0.039282,0.349406
2025-08-05T19:37:02.018778694Z,-2.409764,1.151611,9.757569,-0.100667,-0.088417,0.439421
2025-08-05T19:37:02.038683225Z,-2.360683,1.133654,9.906010,-0.082957,-0.079495,0.496945
2025-08-05T19:37:02.058562288Z,-2.151190,0.990002,9.929952,-0.052331,-0.035021,0.542752
2025-08-05T19:37:02.078390204Z,-2.066196,0.866701,10.025720,-0.071240,-0.068710,0.585362
2025-08-05T19:37:02.098291246Z,-2.012326,0.836774,10.212467,-0.071772,-0.112518,0.621581
2025-08-05T19:37:02.118137913Z,-1.910573,0.881066,10.317812,-0.053396,-0.120375,0.648213
2025-08-05T19:37:02.138203538Z,-1.780089,0.790087,10.284293,-0.007590,-0.087751,0.654604
2025-08-05T19:37:02.158046558Z,-1.674744,0.666785,10.245986,-0.002264,-0.115182,0.678040
2025-08-05T19:37:02.177940413Z,-1.617283,0.644040,10.346542,-0.003462,-0.161787,0.692954
2025-08-05T19:37:02.197827704Z,-1.555034,0.549469,10.413580,0.011851,-0.174171,0.699346
2025-08-05T19:37:02.217471454Z,-1.408988,0.527921,10.298658,0.022104,-0.127832,0.687628
2025-08-05T19:37:02.237357913Z,-1.194707,0.422577,10.087969,-0.009321,-0.056725,0.624777
2025-08-05T19:37:02.257427183Z,-1.180341,0.677559,10.313024,-0.031292,-0.145808,0.639691
2025-08-05T19:37:02.277089319Z,-1.240196,0.466869,10.174160,-0.027297,-0.161387,0.675910
2025-08-05T19:37:02.297206610Z,-0.972046,0.538695,9.963470,-0.003329,-0.055926,0.657800
2025-08-05T19:37:02.317019475Z,-0.752976,0.397437,10.092757,-0.041013,-0.046738,0.673779
2025-08-05T19:37:02.336689475Z,-0.572214,0.459687,10.145430,-0.017843,-0.093211,0.641821
2025-08-05T19:37:02.356638173Z,-0.658405,0.471658,10.207679,0.017444,-0.161254,0.639691
2025-08-05T19:37:02.376444944Z,-0.639252,0.426168,10.217256,0.049934,-0.144876,0.613059
2025-08-05T19:37:02.396324163Z,-0.648829,0.578200,10.327389,0.142213,-0.122905,0.586428
2025-08-05T19:37:02.416366142Z,-0.717063,0.531513,10.183737,0.191348,-0.107858,0.583232
2025-08-05T19:37:02.436034944Z,-0.557849,0.462081,10.207679,0.207726,-0.063783,0.517185
2025-08-05T19:37:02.475797600Z,-0.463278,0.627281,10.111911,0.193079,-0.317449,0.485228
2025-08-05T19:37:02.495654006Z,-0.480037,0.823605,10.212467,0.233825,-0.290817,0.468183
2025-08-05T19:37:02.515528381Z,-0.354342,0.806846,10.078392,0.267781,-0.154996,0.438356
2025-08-05T19:37:02.535396871Z,-0.152032,0.991199,10.178948,0.273373,-0.083889,0.408529
2025-08-05T19:37:02.555278017Z,-0.025139,1.033098,10.092757,0.272308,-0.122905,0.379766
2025-08-05T19:37:02.575147600Z,0.274136,0.897826,9.949105,0.233825,-0.159257,0.284958
2025-08-05T19:37:02.595004579Z,0.656011,1.113304,9.996989,0.222773,-0.275504,0.246609
2025-08-05T19:37:02.634738537Z,0.493206,0.887052,9.800665,0.341284,-0.241149,0.072971
2025-08-05T19:37:02.654608642Z,0.318429,0.792481,9.805453,0.291882,-0.327435,0.041013
2025-08-05T19:37:02.674459527Z,0.205901,0.958878,10.169372,0.245277,-0.431698,-0.012251
2025-08-05T19:37:02.694363798Z,-0.164003,1.187524,10.284293,0.283227,-0.532499,-0.034621
2025-08-05T19:37:02.714215152Z,-0.235829,1.225831,10.155006,0.359127,-0.495880,-0.043143
2025-08-05T19:37:02.734103694Z,-0.094571,1.357512,9.958682,0.381631,-0.406664,-0.038882
2025-08-05T19:37:02.754003329Z,-0.049081,1.235408,9.906010,0.378701,-0.380033,-0.021838
2025-08-05T19:37:02.793713069Z,-0.057461,1.400608,10.155006,0.359793,-0.412790,-0.013316
2025-08-05T19:37:02.813607235Z,0.058658,1.458069,10.006566,0.364586,-0.412390,-0.019707
2025-08-05T19:37:02.833456246Z,0.202310,1.614889,10.011354,0.374573,-0.415985,-0.033556
2025-08-05T19:37:02.853320881Z,0.185551,1.723825,10.054450,0.390952,-0.455933,-0.016512
2025-08-05T19:37:02.873156975Z,0.262165,1.644817,9.877279,0.431032,-0.410260,-0.047404
2025-08-05T19:37:02.893126923Z,0.402226,1.739388,9.685743,0.427703,-0.435959,-0.065514
2025-08-05T19:37:02.952733069Z,0.578200,2.084153,9.532514,0.480700,-0.481100,-0.091080
2025-08-05T19:37:02.972538225Z,0.760159,1.974019,9.264363,0.503337,-0.464322,-0.100667
2025-08-05T19:37:02.992435360Z,0.830788,2.073379,9.063251,0.479102,-0.439022,-0.092145
2025-08-05T19:37:03.012278069Z,0.913388,2.154782,8.929175,0.434228,-0.435426,-0.071905
2025-08-05T19:37:03.032335881Z,1.060631,2.355895,9.163807,0.453536,-0.377636,-0.083623
2025-08-05T19:37:03.052026089Z,1.121683,2.439692,9.130288,0.481233,-0.323707,-0.105994
2025-08-05T19:37:03.072074162Z,1.398214,2.565387,9.197326,0.499742,-0.339819,-0.162453
2025-08-05T19:37:03.091950360Z,1.489193,2.596512,8.871715,0.441419,-0.435027,-0.165648
2025-08-05T19:37:03.111617756Z,1.604115,2.803610,8.752005,0.423575,-0.450473,-0.226369
2025-08-05T19:37:03.131510829Z,1.540669,3.110068,8.866926,0.341550,-0.437956,-0.255131
2025-08-05T19:37:03.151369423Z,1.492785,3.384204,8.790312,0.303201,-0.455800,-0.263653
2025-08-05T19:37:03.171215725Z,1.583764,3.500323,8.632295,0.299339,-0.445946,-0.278566
2025-08-05T19:37:03.191097912Z,1.653196,3.329138,8.483853,0.273906,-0.436092,-0.299872
2025-08-05T19:37:03.211096662Z,1.703475,3.116054,8.450335,0.243812,-0.499742,-0.293480
2025-08-05T19:37:03.250885516Z,1.716643,2.960430,8.550891,0.211987,-0.545282,-0.292415
2025-08-05T19:37:03.270578329Z,1.938106,2.856283,8.483853,0.244478,-0.506533,-0.312655
2025-08-05T19:37:03.290476610Z,2.173935,2.922123,8.273164,0.218512,-0.490953,-0.327569
2025-08-05T19:37:03.310319683Z,2.244564,3.065775,8.306683,0.195742,-0.431165,-0.355265
2025-08-05T19:37:03.330175985Z,2.309207,3.151967,8.263587,0.202800,-0.378302,-0.382962
2025-08-05T19:37:03.350084631Z,2.425326,3.039439,8.282741,0.195742,-0.329166,-0.391484
2025-08-05T19:37:03.409714527Z,2.640805,3.190274,8.483853,0.314785,-0.214251,-0.510794
2025-08-05T19:37:03.429540360Z,2.600103,3.187880,8.483853,0.350072,-0.222374,-0.548078
2025-08-05T19:37:03.449395985Z,2.564190,3.253720,8.273164,0.375505,-0.194277,-0.622647
2025-08-05T19:37:03.469253381Z,2.522291,3.317167,8.148665,0.376970,-0.206262,-0.653539
2025-08-05T19:37:03.489165673Z,2.472013,3.246537,7.923611,0.398941,-0.156061,-0.688693
2025-08-05T19:37:03.509022131Z,2.446874,3.049016,7.507020,0.428369,-0.071772,-0.748348
2025-08-05T19:37:03.548797287Z,2.561796,3.023877,6.506243,0.299605,-0.058723,-0.821851
2025-08-05T19:37:03.568633798Z,2.671929,2.985569,5.955577,0.229431,-0.032224,-0.884701
2025-08-05T19:37:03.588492287Z,2.697068,3.128025,5.740098,0.123437,-0.037817,-0.949682
2025-08-05T19:37:03.608339579Z,2.522291,3.144784,5.606023,0.035420,-0.061785,-1.006141
2025-08-05T19:37:03.628220620Z,2.242170,3.361459,5.653907,0.040214,-0.067245,-1.057274
2025-08-05T19:37:03.648103745Z,2.014721,3.567361,5.366603,0.025966,0.015047,-1.123320
2025-08-05T19:37:03.707788433Z,0.505177,3.410540,5.213374,-0.266183,0.067511,-1.318264
2025-08-05T19:37:03.727592964Z,-0.071826,3.670311,5.601235,-0.401738,-0.012117,-1.329982
2025-08-05T19:37:03.747480725Z,-0.770933,3.711013,5.864597,-0.471379,-0.062851,-1.307611
2025-08-05T19:37:03.767324839Z,-1.413776,2.964022,6.003461,-0.416252,-0.046472,-1.303350
2025-08-05T19:37:03.787193485Z,-1.663970,2.296039,5.634754,-0.463123,0.032757,-1.285240
2025-08-05T19:37:03.807058693Z,-1.474828,2.189497,5.309142,-0.548344,0.192014,-1.254348
2025-08-05T19:37:03.866669839Z,-2.929306,2.638410,4.116830,-0.643020,0.147140,-1.373657
2025-08-05T19:37:03.886621350Z,-3.818752,3.513491,3.877410,-1.000682,0.005060,-1.278849
2025-08-05T19:37:03.906404318Z,-4.750096,4.362236,4.088099,-1.833718,0.030493,-0.958205
2025-08-05T19:37:03.926294162Z,-4.875792,4.940435,6.218939,-1.561676,0.398542,-0.891093
2025-08-05T19:37:03.946170933Z,-4.570531,5.181053,8.761581,-1.971537,0.703207,-0.596015
2025-08-05T19:37:03.966020829Z,-4.456807,4.957195,10.643424,-2.117344,0.710264,-0.365918
2025-08-05T19:37:04.005945516Z,-3.824737,3.632004,12.635400,-1.572595,0.549676,-0.281762
2025-08-05T19:37:04.025641350Z,-3.378219,3.053804,13.722367,-1.614540,0.317449,-0.072971
2025-08-05T19:37:04.045513902Z,-3.232172,2.853889,14.368801,-1.589373,0.359793,0.020773
2025-08-05T19:37:04.065384683Z,-3.414132,2.788048,14.694413,-1.294695,0.295211,0.049535
2025-08-05T19:37:04.085246974Z,-3.148375,2.401384,14.675260,-1.029311,0.217047,0.136886
2025-08-05T19:37:04.105090933Z,-2.960430,2.535460,14.191630,-0.760731,0.276303,0.228499
2025-08-05T19:37:04.164737495Z,-2.570175,0.952892,11.562798,-0.543418,0.123571,0.551274
2025-08-05T19:37:04.184602860Z,-2.363077,0.671574,11.505336,-0.636894,0.303067,0.590689
2025-08-05T19:37:04.204438277Z,-2.339135,0.851139,11.807006,-0.537425,0.252467,0.631169
2025-08-05T19:37:04.224336089Z,-2.437297,0.998382,11.524490,-0.351936,0.223439,0.600276
2025-08-05T19:37:04.244209839Z,-2.372654,0.870292,11.036073,-0.271110,0.149004,0.641821
2025-08-05T19:37:04.264047652Z,-1.969231,0.635661,10.590752,-0.293081,0.079495,0.688693
2025-08-05T19:37:04.303784370Z,-1.980005,0.537498,10.456676,-0.375905,0.076566,0.761131
2025-08-05T19:37:04.323682495Z,-1.905785,0.342371,10.571598,-0.319579,0.158458,0.778175
2025-08-05T19:37:04.343564787Z,-1.784877,0.071826,10.897209,-0.292015,0.218512,0.778175
2025-08-05T19:37:04.363612079Z,-1.582567,0.081403,10.662578,-0.200669,0.217314,0.778175
2025-08-05T19:37:04.383282547Z,-1.359907,0.089783,10.571598,-0.197207,0.174437,0.752609
2025-08-05T19:37:04.403157443Z,-1.435324,-0.007183,10.375273,-0.208792,0.078164,0.737695
2025-08-05T19:37:04.423044370Z,-1.534683,-0.049081,10.538078,-0.214917,0.020773,0.740891
2025-08-05T19:37:04.462743641Z,-1.487996,-0.191536,10.437522,-0.089615,0.143145,0.678040
2025-08-05T19:37:04.482622183Z,-1.484405,-0.268151,10.107122,-0.139550,0.063383,0.673779
2025-08-05T19:37:04.502487756Z,-1.538275,-0.205901,10.222044,-0.176168,-0.027697,0.678040
2025-08-05T19:37:04.522343120Z,-1.596933,-0.174777,10.289082,-0.161787,-0.049934,0.675910
2025-08-05T19:37:04.542239318Z,-1.541866,-0.179565,10.159795,-0.130894,-0.023036,0.620516
2025-08-05T19:37:04.562088797Z,-1.557428,-0.283713,9.996989,-0.177766,-0.076166,0.611994
2025-08-05T19:37:04.621697547Z,-1.344344,-0.102951,10.020931,-0.269112,-0.200802,0.548078
2025-08-05T19:37:04.641602912Z,-1.541866,-0.077812,10.092757,-0.230097,-0.258060,0.550209
2025-08-05T19:37:04.661438068Z,-1.657985,-0.003591,10.183737,-0.158192,-0.240616,0.553404
2025-08-05T19:37:04.681333276Z,-1.695095,0.120907,10.456676,-0.046872,-0.242481,0.583232
2025-08-05T19:37:04.701204631Z,-1.736993,-0.099359,10.265140,0.042477,-0.154330,0.565122
2025-08-05T19:37:04.721079110Z,-1.657985,-0.119710,10.289082,0.049668,-0.146740,0.543817
2025-08-05T19:37:04.741112078Z,-1.523909,-0.124498,10.135853,-0.005326,-0.231828,0.549143
2025-08-05T19:37:04.761053276Z,-1.461660,0.071826,10.150218,0.014647,-0.260457,0.512924
2025-08-05T19:37:04.780675985Z,-1.496376,0.199916,10.145430,0.023835,-0.324772,0.557665
2025-08-05T19:37:04.800748224Z,-1.544260,0.215478,10.202890,0.099602,-0.258593,0.581101
2025-08-05T19:37:04.820415412Z,-1.411382,0.102951,10.245986,0.149403,-0.141680,0.582166
2025-08-05T19:37:04.840300672Z,-1.058237,0.096965,10.059238,0.145142,-0.111586,0.539556
2025-08-05T19:37:04.860161037Z,-0.948104,0.214281,9.996989,0.091480,-0.216515,0.507598
2025-08-05T19:37:04.880023224Z,-1.009156,0.306458,10.140641,0.056725,-0.312255,0.505468
2025-08-05T19:37:04.919769214Z,-1.227028,0.470461,10.087969,0.148205,-0.271775,0.466053
2025-08-05T19:37:04.939648485Z,-1.346738,0.624887,9.896433,0.155795,-0.372709,0.495880
2025-08-05T19:37:04.959701714Z,-1.278504,0.426168,9.369708,0.046206,-0.548211,0.566188
2025-08-05T19:37:04.979389630Z,-1.005565,0.172383,8.857349,-0.108257,-0.732635,0.621581
2025-08-05T19:37:04.999238589Z,-0.642843,0.112527,9.269152,-0.249405,-0.811997,0.682301
2025-08-05T19:37:05.019111401Z,-0.507571,0.239420,9.896433,-0.265384,-0.741423,0.720651
2025-08-05T19:37:05.039002130Z,-0.426168,0.256180,10.212467,-0.136487,-0.530235,0.691889
2025-08-05T19:37:05.078731089Z,0.174777,0.057461,10.035296,0.006258,-0.484695,0.625842
2025-08-05T19:37:05.098577078Z,0.354342,0.185551,10.016143,-0.001598,-0.603205,0.555535
2025-08-05T19:37:05.118447547Z,0.337582,0.284910,10.035296,-0.000666,-0.655803,0.513990
2025-08-05T19:37:05.138353589Z,0.275333,0.397437,10.250774,0.039548,-0.534895,0.496945
2025-08-05T19:37:05.158184995Z,0.307655,0.481235,10.499771,0.124236,-0.305065,0.503337
2025-08-05T19:37:05.178075516Z,0.487220,0.433351,10.676943,0.212653,-0.062717,0.461792
2025-08-05T19:37:05.237671089Z,0.890643,0.745794,9.944317,0.272841,-0.485361,0.264718
2025-08-05T19:37:05.257339735Z,0.675165,0.957681,9.542090,0.260057,-0.639025,0.282827
2025-08-05T19:37:05.277429735Z,0.587777,0.866701,9.340978,0.225303,-0.603871,0.336091
2025-08-05T19:37:05.297304370Z,0.769736,0.750582,9.384073,0.248606,-0.371644,0.329699
2025-08-05T19:37:05.317362703Z,1.022324,0.615310,9.503783,0.219844,-0.200403,0.330764
2025-08-05T19:37:05.337017026Z,1.122881,0.316035,9.929952,0.194411,-0.214651,0.306263
2025-08-05T19:37:05.376782912Z,1.255759,0.460884,10.250774,0.229165,-0.464988,0.181627
2025-08-05T19:37:05.396616297Z,1.277307,0.598550,10.169372,0.278833,-0.578971,0.131560
2025-08-05T19:37:05.416505932Z,1.388637,0.647632,10.063129,0.335691,-0.587892,0.100135
2025-08-05T19:37:05.436404734Z,1.477222,0.806846,10.053553,0.350472,-0.525708,0.075634
2025-08-05T19:37:05.456231297Z,1.681927,0.887052,10.077495,0.351803,-0.476173,0.068177
2025-08-05T19:37:05.476138276Z,1.862689,0.972046,10.077495,0.390153,-0.408395,0.039415
2025-08-05T19:37:05.535780776Z,1.789666,1.019930,9.713575,0.529436,-0.331830,-0.039415
2025-08-05T19:37:05.555600516Z,1.806425,0.945710,9.560347,0.487758,-0.405066,-0.052198
2025-08-05T19:37:05.575484943Z,1.829170,0.961272,9.589077,0.444748,-0.468450,-0.073503
2025-08-05T19:37:05.595536557Z,1.926135,1.059434,9.522039,0.424907,-0.521580,-0.088417
2025-08-05T19:37:05.615386349Z,2.018312,1.210269,9.292196,0.409194,-0.495747,-0.096939
2025-08-05T19:37:05.635119787Z,2.195483,1.436521,9.201217,0.429701,-0.445147,-0.095874
2025-08-05T19:37:05.694984734Z,2.631228,1.553837,8.655338,0.498810,-0.282827,-0.168312
2025-08-05T19:37:05.714798953Z,2.715025,1.602918,8.645761,0.456465,-0.321843,-0.186421
2025-08-05T19:37:05.734459682Z,2.726996,1.784877,8.794202,0.454335,-0.321177,-0.215183
2025-08-05T19:37:05.754288745Z,2.762909,1.762132,8.679280,0.472844,-0.333694,-0.254598
2025-08-05T19:37:05.774169057Z,2.838326,1.792060,8.478168,0.454601,-0.336091,-0.297209
2025-08-05T19:37:05.794041505Z,2.958036,2.060210,9.148544,0.392416,-0.358861,-0.319579
2025-08-05T19:37:05.833778380Z,2.738967,2.240973,8.463802,0.407730,-0.280963,-0.378169
2025-08-05T19:37:05.853634995Z,2.782062,2.203863,8.396765,0.372043,-0.279365,-0.379234
2025-08-05T19:37:05.873505932Z,2.765303,2.507926,8.631396,0.378435,-0.278167,-0.394148
2025-08-05T19:37:05.893383380Z,2.782062,2.381034,8.607454,0.397210,-0.260057,-0.430366
2025-08-05T19:37:05.913254370Z,2.810793,2.445677,8.640973,0.382962,-0.259525,-0.458063
2025-08-05T19:37:05.933131141Z,2.840720,2.589329,8.502110,0.360725,-0.287089,-0.475108
2025-08-05T19:37:05.953025568Z,2.904167,2.896984,8.569147,0.348341,-0.319180,-0.497478
2025-08-05T19:37:05.992808745Z,2.899378,3.209427,8.281843,0.288953,-0.331430,-0.543284
2025-08-05T19:37:06.012606922Z,2.870648,3.390190,8.281843,0.274705,-0.321710,-0.551807
2025-08-05T19:37:06.032456036Z,2.902970,3.441665,8.171710,0.254199,-0.260856,-0.568851
2025-08-05T19:37:06.052341349Z,2.914941,3.520674,8.047212,0.236489,-0.206661,-0.589091
2025-08-05T19:37:06.072195672Z,2.920926,3.585317,7.980174,0.229964,-0.193878,-0.607200
2025-08-05T19:37:06.092055776Z,2.991555,3.576937,7.984962,0.233293,-0.216914,-0.629571
2025-08-05T19:37:06.151684370Z,2.882619,3.615245,7.841310,0.162852,-0.231562,-0.696682
2025-08-05T19:37:06.171555411Z,2.778471,3.612850,7.807791,0.170975,-0.187620,-0.717988
2025-08-05T19:37:06.191424005Z,2.653973,3.612850,7.640197,0.153265,-0.164983,-0.741423
2025-08-05T19:37:06.211292286Z,2.651578,3.604471,7.735965,0.111853,-0.166447,-0.742489
2025-08-05T19:37:06.231153068Z,2.521094,3.700239,7.860464,0.147406,-0.135555,-0.744619
2025-08-05T19:37:06.251012807Z,2.257732,3.643975,7.616255,0.196275,-0.071506,-0.762729
2025-08-05T19:37:06.310638068Z,2.306813,3.962404,7.070377,0.081093,-0.074702,-0.834101
2025-08-05T19:37:06.330537651Z,1.880645,4.046201,7.046435,0.046339,-0.134756,-0.818122
2025-08-05T19:37:06.350440047Z,1.349133,4.200627,6.984186,0.071106,0.064315,-0.791491
2025-08-05T19:37:06.370282286Z,1.667562,4.147954,6.874053,0.080161,0.216914,-0.787230
2025-08-05T19:37:06.390160203Z,1.638831,4.310760,7.036858,-0.037684,0.164051,-0.741423
2025-08-05T19:37:06.410044474Z,1.458069,4.446033,7.127838,-0.068177,0.180163,-0.735032
2025-08-05T19:37:06.449767963Z,1.359907,4.173094,7.065588,-0.109456,0.202666,-0.748880
2025-08-05T19:37:06.469587755Z,1.249773,4.218584,6.893206,-0.176967,0.136087,-0.771251
2025-08-05T19:37:06.489468797Z,0.924162,4.502296,6.816592,-0.252867,0.103331,-0.772316
2025-08-05T19:37:06.509339161Z,0.830788,4.295198,6.739977,-0.265384,0.069775,-0.773381
2025-08-05T19:37:06.529356297Z,0.822408,3.906140,6.640318,-0.291216,0.130362,-0.788295
2025-08-05T19:37:06.549075359Z,0.821211,3.841497,6.501455,-0.350205,0.140748,-0.771251
2025-08-05T19:37:06.608691140Z,0.961272,3.088520,6.056133,-0.540754,0.239951,-0.854341
2025-08-05T19:37:06.628730203Z,0.737414,2.813187,5.816713,-0.555668,0.269911,-0.899082
2025-08-05T19:37:06.648434057Z,0.423774,3.047819,5.548563,-0.633299,0.318913,-0.961933
2025-08-05T19:37:06.668316870Z,-0.027533,3.394978,5.625177,-0.791757,0.361124,-0.984303
2025-08-05T19:37:06.688184786Z,-0.480037,3.433285,6.036980,-0.845819,0.376970,-0.984303
2025-08-05T19:37:06.708035099Z,-0.958878,2.800019,6.051345,-0.886699,0.446612,-1.012000
2025-08-05T19:37:06.747772651Z,-1.869871,3.367445,8.163031,-1.246758,0.570449,-0.960868
2025-08-05T19:37:06.767653276Z,-2.695871,3.780444,6.951565,-0.993225,0.606934,-1.025849
2025-08-05T19:37:06.787527963Z,-2.844312,3.494337,8.086416,-1.058872,0.559929,-0.999217
2025-08-05T19:37:06.807393172Z,-3.523068,3.126827,7.952341,-0.895354,0.623845,-1.001348
2025-08-05T19:37:06.827258953Z,-4.297592,3.029862,7.894880,-0.986168,0.627840,-0.880973
2025-08-05T19:37:06.847168119Z,-4.491522,3.306392,8.996213,-1.193228,0.551141,-0.715857
2025-08-05T19:37:06.867019526Z,-4.466383,3.298013,9.738416,-1.526789,0.503470,-0.504935
2025-08-05T19:37:06.906739422Z,-4.368221,2.853889,11.170148,-1.291233,0.397210,-0.270577
2025-08-05T19:37:06.926657963Z,-4.010288,2.543839,11.658566,-1.191098,0.431698,-0.171507
2025-08-05T19:37:06.946480828Z,-3.751714,2.444480,12.439075,-1.212803,0.418782,-0.006392
2025-08-05T19:37:06.966342807Z,-3.669114,2.170344,13.080721,-0.949283,0.317315,0.055394
2025-08-05T19:37:06.986289422Z,-3.523068,1.732205,12.640188,-0.920388,0.244212,0.145941
2025-08-05T19:37:07.006062026Z,-3.166332,1.437718,12.692861,-0.837031,0.110654,0.241815
2025-08-05T19:37:07.065695411Z,-2.656367,1.104924,12.194866,-0.523710,0.285491,0.477238
2025-08-05T19:37:07.085554369Z,-2.112883,0.776918,12.166136,-0.488290,0.228632,0.532632
2025-08-05T19:37:07.105414578Z,-2.205060,0.508768,11.921927,-0.385226,0.158591,0.527305
2025-08-05T19:37:07.125510828Z,-2.488773,0.472855,11.802217,-0.309060,0.134756,0.493217
2025-08-05T19:37:07.145171921Z,-2.553416,0.622492,11.778275,-0.303467,0.031292,0.557133
2025-08-05T19:37:07.165083276Z,-2.404976,0.667982,11.524490,-0.303334,-0.019042,0.655137
2025-08-05T19:37:07.224667859Z,-1.539472,0.022745,10.753557,-0.206794,0.165515,0.677508
2025-08-05T19:37:07.244496192Z,-0.833182,-0.312443,11.107899,-0.174970,0.043409,0.643419
2025-08-05T19:37:07.264382546Z,-0.465672,-0.427365,10.662578,-0.198538,0.055793,0.558198
2025-08-05T19:37:07.284243536Z,-0.695516,-0.197522,11.112687,-0.137685,-0.003329,0.496413
2025-08-05T19:37:07.304466921Z,-0.994791,-0.154426,11.074380,-0.027031,-0.059122,0.459129
2025-08-05T19:37:07.324000203Z,-1.267730,-0.165200,10.629059,0.076832,-0.035686,0.386691
2025-08-05T19:37:07.344025932Z,-1.375469,-0.140061,10.183737,0.110388,-0.109456,0.400539
2025-08-05T19:37:07.383575046Z,-1.443704,0.004788,10.310929,0.082957,0.006125,0.313720
2025-08-05T19:37:07.403453848Z,-1.473631,0.084994,10.358813,0.115448,-0.039415,0.298806
2025-08-05T19:37:07.423353744Z,-1.612495,0.105345,10.018836,0.137286,-0.086819,0.277501
2025-08-05T19:37:07.443247130Z,-1.406593,0.043096,9.942222,0.194943,-0.102931,0.257261
2025-08-05T19:37:07.463124578Z,-1.496376,0.031125,9.736320,0.172040,-0.094409,0.260457
2025-08-05T19:37:07.503026036Z,-1.326388,0.142455,9.283217,0.106127,-0.193079,0.188552
2025-08-05T19:37:07.522744473Z,-1.487996,0.189142,9.321525,0.086553,-0.287222,0.207726
2025-08-05T19:37:07.542565723Z,-1.422156,0.202310,9.479543,0.128497,-0.286689,0.187486
2025-08-05T19:37:07.562456557Z,-1.450886,0.227449,9.106047,0.119443,-0.204531,0.164051
2025-08-05T19:37:07.582313692Z,-1.229423,0.317232,9.067739,0.096273,-0.192546,0.142745
2025-08-05T19:37:07.602180515Z,-1.146823,0.325611,8.919299,0.111054,-0.212520,0.123571
2025-08-05T19:37:07.622034265Z,-1.069011,0.324414,8.904934,0.108391,-0.209058,0.087352
2025-08-05T19:37:07.661784525Z,-0.870292,0.447716,8.775647,0.082824,-0.223972,0.015979
2025-08-05T19:37:07.681663015Z,-0.672771,0.453701,8.818743,0.074968,-0.127033,-0.059655
2025-08-05T19:37:07.701536765Z,-0.645237,0.645237,8.694244,0.174037,-0.135288,-0.106526
2025-08-05T19:37:07.721416192Z,-0.766145,0.539892,8.402152,0.123571,-0.149270,-0.126766
2025-08-05T19:37:07.741281244Z,-0.827197,0.591368,8.641572,0.093211,-0.209191,-0.142745
2025-08-05T19:37:07.761160932Z,-0.677559,0.462081,8.885780,0.033423,-0.311856,-0.180030
2025-08-05T19:37:07.781004786Z,-0.847547,0.514753,8.971972,-0.033423,-0.446079,-0.235423
2025-08-05T19:37:07.820732859Z,-1.161188,0.648829,9.125200,-0.130095,-0.409594,-0.220510
2025-08-05T19:37:07.840609161Z,-1.077391,0.699107,9.283217,-0.152732,-0.374174,-0.190682
2025-08-05T19:37:07.860512078Z,-0.497994,0.761356,9.517850,-0.150468,-0.508131,-0.220510
2025-08-05T19:37:07.880350880Z,-0.762553,0.749385,9.570522,-0.100934,-0.801877,-0.166181
2025-08-05T19:37:07.900245828Z,-1.055843,0.499191,9.446024,-0.202267,-0.909868,0.024501
2025-08-05T19:37:07.920088484Z,-1.115698,0.415394,9.685444,-0.278700,-0.659398,0.067112
2025-08-05T19:37:07.979699890Z,-0.345962,-0.046687,9.474754,-1.056875,-0.530235,0.074568
2025-08-05T19:37:07.999577130Z,-0.568623,-0.360327,9.321525,-1.407346,-0.504669,0.149137
2025-08-05T19:37:08.019477182Z,-9.088389,4.730943,53.666927,-0.564989,-2.062750,0.518783
2025-08-05T19:37:08.039300984Z,0.282516,-0.561440,3.479673,1.018126,-0.971254,-0.390952
2025-08-05T19:37:08.059195098Z,-1.739388,-0.867898,7.377433,-0.688427,-0.074036,0.189617
2025-08-05T19:37:08.079056817Z,-0.319626,1.352724,10.609606,0.172573,-0.047671,0.005326
2025-08-05T19:37:08.118808327Z,-0.083797,-0.143652,9.977536,-0.157792,0.008123,-0.007457
2025-08-05T19:37:08.138674630Z,-0.107739,-0.001197,9.996690,-0.066712,-0.002131,-0.012783
2025-08-05T19:37:08.158568692Z,0.023942,-0.159214,9.714174,-0.065913,-0.007191,-0.021305
2025-08-05T19:37:08.178389994Z,0.320823,-0.428562,9.597457,-0.036219,-0.024767,0.007989
2025-08-05T19:37:08.198354629Z,0.035913,-0.119710,9.678860,-0.027564,0.006258,-0.019707
2025-08-05T19:37:08.218109838Z,-0.178368,-0.185551,9.688437,-0.093077,0.004527,-0.018642
2025-08-05T19:37:08.277764004Z,-0.046687,-0.377087,9.602245,-0.038083,-0.003728,-0.015446
2025-08-05T19:37:08.297619213Z,-0.077812,-0.114922,9.808146,-0.003063,-0.009188,-0.014381
2025-08-05T19:37:08.317482650Z,-0.010774,-0.160412,9.793781,-0.001198,-0.008256,-0.015446
2025-08-05T19:37:08.337381765Z,-0.021548,-0.154426,9.769839,-0.002796,-0.007723,-0.013316
2025-08-05T19:37:08.357236609Z,-0.028730,-0.136469,9.760262,-0.003329,-0.008922,-0.014381
2025-08-05T19:37:08.377058015Z,-0.025139,-0.175974,9.769839,-0.005193,-0.008522,-0.015446
2025-08-05T19:37:08.416801296Z,-0.099359,-0.228646,9.717167,-0.002397,-0.008256,-0.014381
2025-08-05T19:37:08.436890150Z,-0.063446,-0.229843,9.731532,-0.001198,-0.008655,-0.014381
2025-08-05T19:37:08.456598119Z,-0.043096,-0.189142,9.741109,-0.000399,-0.008522,-0.015446
2025-08-05T19:37:08.476475306Z,-0.027533,-0.166397,9.741109,-0.001864,-0.008922,-0.014381
2025-08-05T19:37:08.496411556Z,0.008380,-0.161609,9.745897,-0.002530,-0.008922,-0.014381
2025-08-05T19:37:08.516230254Z,-0.017957,-0.172383,9.731532,-0.002929,-0.008123,-0.014381
2025-08-05T19:37:08.536097234Z,-0.056264,-0.207098,9.731532,-0.003196,-0.007723,-0.014381
2025-08-05T19:37:08.575799213Z,-0.050278,-0.171185,9.750686,-0.002264,-0.007590,-0.014381
2025-08-05T19:37:08.595649213Z,-0.021548,-0.141258,9.736320,-0.002264,-0.008256,-0.014381
2025-08-05T19:37:08.615539890Z,-0.025139,-0.177171,9.736320,-0.001864,-0.009055,-0.013316
2025-08-05T19:37:08.635397181Z,-0.028730,-0.185551,9.741109,-0.002397,-0.008256,-0.015446
2025-08-05T19:37:08.655295463Z,-0.070629,-0.208296,9.726744,-0.002131,-0.007989,-0.014381
2025-08-05T19:37:08.675161973Z,-0.049081,-0.187945,9.741109,-0.001198,-0.008123,-0.014381
2025-08-05T19:37:08.695049317Z,-0.055067,-0.171185,9.745897,-0.001864,-0.009188,-0.014381
2025-08-05T19:37:08.734745619Z,-0.032322,-0.183156,9.741109,-0.001731,-0.008788,-0.015446
2025-08-05T19:37:08.754611713Z,-0.010774,-0.167594,9.736320,-0.001997,-0.009055,-0.014381
2025-08-05T19:37:08.774690619Z,-0.002394,-0.167594,9.731532,-0.001198,-0.009188,-0.014381
2025-08-05T19:37:08.794331608Z,-0.010774,-0.178368,9.765051,-0.005859,-0.006924,-0.013316
2025-08-05T19:37:08.814244733Z,-0.058658,-0.223858,9.717167,-0.003595,-0.007856,-0.014381
2025-08-05T19:37:08.834126608Z,-0.074220,-0.217872,9.717167,-0.000133,-0.008256,-0.015446
2025-08-05T19:37:08.913593483Z,-0.073023,-0.177171,9.730036,-0.001198,-0.008123,-0.014914
2025-08-05T19:37:08.933431400Z,-0.056264,-0.161609,9.734824,-0.001997,-0.009854,-0.013848
2025-08-05T19:37:08.953342858Z,-0.016759,-0.132878,9.801862,-0.002663,-0.009055,-0.013848
2025-08-05T19:37:08.973163848Z,-0.002394,-0.186748,9.753978,-0.001598,-0.007723,-0.012783
2025-08-05T19:37:08.993055098Z,-0.009577,-0.222661,9.763555,-0.004128,-0.008522,-0.014914
