timestamp,accel_x,accel_y,accel_z,gyro_x,gyro_y,gyro_z
1980-01-06T00:04:28.082430939Z,0.058658,-0.120907,9.771935,0.000000,0.000000,-0.000133
1980-01-06T00:04:28.102366616Z,0.011971,-0.064643,9.795877,0.000799,0.111187,0.692288
1980-01-06T00:04:28.122158022Z,-0.007183,-0.177171,9.728839,0.000266,-0.006392,0.005193
1980-01-06T00:04:28.142019689Z,-0.002394,-0.186748,9.728839,-0.009454,-0.007989,-0.013982
1980-01-06T00:04:28.161697189Z,0.001197,-0.107739,9.762358,-0.002796,-0.008655,-0.013982
1980-01-06T00:04:28.181571824Z,0.019154,-0.152032,9.728839,0.001598,-0.009454,-0.013982
1980-01-06T00:04:28.201439064Z,0.019154,-0.171185,9.721656,-0.002929,-0.007590,-0.013848
1980-01-06T00:04:28.221272293Z,0.009577,-0.142455,9.740211,-0.004261,-0.006791,-0.012783
1980-01-06T00:04:28.241179949Z,0.033519,-0.144849,9.730635,-0.002929,-0.008389,-0.013848
1980-01-06T00:04:28.261091928Z,-0.007183,-0.149638,9.745000,-0.001598,-0.007989,-0.012783
1980-01-06T00:04:28.281042866Z,0.010774,-0.154426,9.721058,-0.002929,-0.007590,-0.012783
1980-01-06T00:04:28.300926980Z,-0.002394,-0.128090,9.745000,-0.003462,-0.007457,-0.013848
1980-01-06T00:04:28.320827241Z,0.041899,-0.136469,9.731233,-0.001065,-0.007856,-0.013848
1980-01-06T00:04:28.340826824Z,0.016759,-0.152032,9.726444,-0.002264,-0.008389,-0.013848
1980-01-06T00:04:28.360549272Z,0.008380,-0.125696,9.736021,-0.002796,-0.008389,-0.013848
1980-01-06T00:04:28.380431928Z,0.026336,-0.148441,9.731233,-0.002796,-0.007989,-0.013848
1980-01-06T00:04:28.400297345Z,-0.013168,-0.150835,9.712678,-0.002264,-0.008256,-0.014381
1980-01-06T00:04:28.420188491Z,0.033519,-0.156820,9.731832,-0.003462,-0.007324,-0.014381
1980-01-06T00:04:28.440046043Z,0.005986,-0.135272,9.731832,-0.001332,-0.008123,-0.014381
1980-01-06T00:04:28.459790053Z,0.009577,-0.146046,9.722255,-0.002796,-0.007723,-0.014381
1980-01-06T00:04:28.479789532Z,0.005986,-0.152032,9.727043,-0.004128,-0.008123,-0.014381
1980-01-06T00:04:28.499643074Z,0.000000,-0.152032,9.731832,-0.002929,-0.007723,-0.014381
1980-01-06T00:04:28.519515001Z,-0.002394,-0.144849,9.736620,-0.002929,-0.007590,-0.014381
1980-01-06T00:04:28.539386460Z,0.010774,-0.156820,9.717466,-0.002131,-0.008522,-0.014381
1980-01-06T00:04:28.559283647Z,0.028730,-0.126893,9.714772,-0.003063,-0.008256,-0.015446
1980-01-06T00:04:28.579131512Z,0.011971,-0.143652,9.729137,-0.002264,-0.007856,-0.014381
1980-01-06T00:04:28.598997605Z,0.014365,-0.142455,9.733926,-0.002796,-0.007856,-0.014381
1980-01-06T00:04:28.618855939Z,-0.010774,-0.136469,9.712079,-0.002530,-0.007057,-0.013848
1980-01-06T00:04:28.638733282Z,0.004788,-0.136469,9.721656,-0.003462,-0.007856,-0.013848
1980-01-06T00:04:28.658591043Z,-0.001197,-0.120907,9.721656,-0.002397,-0.008522,-0.014914
1980-01-06T00:04:28.678532866Z,0.028730,-0.142455,9.716867,-0.001731,-0.007856,-0.013848
1980-01-06T00:04:28.698330730Z,0.002394,-0.159214,9.712079,-0.002796,-0.008256,-0.013848
1980-01-06T00:04:28.718171668Z,0.003591,-0.140061,9.721058,-0.003196,-0.007324,-0.014914
1980-01-06T00:04:28.738074272Z,0.032322,-0.144849,9.721058,-0.002264,-0.007324,-0.013848
1980-01-06T00:04:28.757944064Z,0.000000,-0.156820,9.716867,-0.002796,-0.007989,-0.012783
1980-01-06T00:04:28.777828230Z,0.011971,-0.152032,9.731233,-0.002397,-0.007324,-0.013848
1980-01-06T00:04:28.797687501Z,-0.004788,-0.141258,9.731832,-0.003196,-0.006924,-0.014381
1980-01-06T00:04:28.817551772Z,-0.002394,-0.150835,9.717466,-0.001332,-0.008522,-0.015446
1980-01-06T00:04:28.837574845Z,0.044293,0.099359,9.727043,-0.032091,0.002264,-0.011185
1980-01-06T00:04:28.857261355Z,-0.009577,-0.241814,9.689633,-0.002131,-0.007324,-0.013316
1980-01-06T00:04:28.877168543Z,-0.008380,-0.135272,9.747094,-0.032624,-0.003862,-0.013316
1980-01-06T00:04:28.897035834Z,0.052672,-0.105345,9.718364,0.011718,-0.007324,-0.011185
1980-01-06T00:04:28.916898334Z,-0.075417,-0.274136,9.737517,0.022637,-0.013848,-0.017577
1980-01-06T00:04:28.936745626Z,0.089783,-0.052672,9.684845,0.016645,-0.013316,-0.013316
1980-01-06T00:04:28.956601772Z,-0.019154,-0.225055,9.727941,-0.000799,-0.005992,-0.015446
1980-01-06T00:04:28.976496147Z,-0.016759,-0.140061,9.718364,-0.009055,-0.009188,-0.014381
1980-01-06T00:04:28.996341199Z,0.031125,-0.155623,9.713575,0.000932,-0.007324,-0.015446
1980-01-06T00:04:29.016275314Z,-0.035913,-0.210690,9.723152,-0.006125,-0.008522,-0.016512
1980-01-06T00:04:29.036090261Z,-0.007183,-0.118513,9.713575,-0.004128,-0.008522,-0.015446
1980-01-06T00:04:29.055840366Z,-0.019154,-0.159214,9.713575,-0.001997,-0.009321,-0.014381
1980-01-06T00:04:29.075794168Z,0.013168,-0.162806,9.708787,-0.005459,-0.007324,-0.015446
1980-01-06T00:04:29.095690261Z,0.009577,-0.047884,9.756671,-0.027031,-0.001198,-0.014381
1980-01-06T00:04:29.115564168Z,-0.023942,-0.077812,9.761459,0.000266,-0.009587,-0.015446
1980-01-06T00:04:29.135418230Z,0.008380,-0.181959,9.694422,-0.013449,-0.005726,-0.013316
1980-01-06T00:04:29.155304011Z,-0.002394,-0.083797,9.737517,-0.015180,-0.005193,-0.013316
1980-01-06T00:04:29.175174480Z,-0.010774,-0.300472,9.675268,-0.014381,-0.004527,-0.014381
1980-01-06T00:04:29.195073543Z,-0.005986,-0.113725,9.732729,-0.002264,-0.005859,-0.015446
1980-01-06T00:04:29.214899636Z,0.035913,-0.166397,9.734824,-0.005459,-0.009587,-0.014914
1980-01-06T00:04:29.234883438Z,-0.003591,-0.160412,9.725247,-0.005193,-0.007856,-0.013848
1980-01-06T00:04:29.254640157Z,0.023942,-0.160412,9.758766,-0.001864,-0.004527,-0.012783
1980-01-06T00:04:29.274486668Z,-0.004788,-0.148441,9.701904,0.006125,-0.006525,-0.014914
1980-01-06T00:04:29.294371511Z,0.019154,-0.142455,9.730635,0.003462,-0.006258,-0.014914
1980-01-06T00:04:29.314264063Z,0.000000,-0.159214,9.682750,0.010653,-0.005992,-0.017044
1980-01-06T00:04:29.334113126Z,0.015562,-0.158017,9.682750,0.010653,-0.010919,-0.015979
1980-01-06T00:04:29.353987553Z,0.029928,-0.117316,9.697116,-0.004261,-0.005992,-0.014914
1980-01-06T00:04:29.373864949Z,0.019154,-0.190339,9.673173,-0.001731,-0.008522,-0.013848
1980-01-06T00:04:29.393912240Z,0.001197,-0.136469,9.730635,-0.002796,-0.010786,-0.014914
1980-01-06T00:04:29.413430365Z,0.040701,-0.152032,9.706693,-0.011718,-0.004794,-0.014914
1980-01-06T00:04:29.433307865Z,0.008380,-0.165200,9.697116,-0.007324,-0.009854,-0.014914
1980-01-06T00:04:29.453183490Z,-0.005986,-0.125696,9.725846,-0.013316,-0.009188,-0.012783
1980-01-06T00:04:29.473111876Z,-0.017957,-0.158017,9.730635,-0.016112,-0.010786,-0.012783
1980-01-06T00:04:29.493039272Z,0.015562,-0.161609,9.721058,-0.014115,-0.011452,-0.010653
1980-01-06T00:04:29.512786199Z,-0.027533,-0.136469,9.762657,-0.017044,-0.009454,-0.013316
1980-01-06T00:04:29.532656824Z,0.040701,-0.135272,9.666888,-0.010386,-0.009454,-0.009055
1980-01-06T00:04:29.552669376Z,-0.033519,-0.296881,9.690830,-0.012117,-0.011984,-0.017577
1980-01-06T00:04:29.572520105Z,-0.003591,-0.136469,9.735423,-0.012650,-0.012916,-0.012783
1980-01-06T00:04:29.592415105Z,-0.029928,-0.156820,9.754577,0.006258,-0.003196,-0.012783
1980-01-06T00:04:29.612356615Z,-0.004788,-0.153229,9.724051,0.000932,-0.008655,-0.014381
1980-01-06T00:04:29.632253647Z,0.001197,-0.161609,9.680955,0.001731,-0.007989,-0.014381
1980-01-06T00:04:29.652005834Z,0.057461,-0.146046,9.731233,0.007723,-0.000666,-0.013848
1980-01-06T00:04:29.671875313Z,-0.248997,-0.102951,9.874885,-0.006525,-0.010120,-0.011718
1980-01-06T00:04:29.691753699Z,0.107739,-0.162806,9.657311,-0.000399,-0.007989,-0.013316
1980-01-06T00:04:29.711450522Z,-0.003591,-0.196325,9.704897,-0.004394,-0.005593,-0.014381
1980-01-06T00:04:29.731472657Z,0.000000,-0.158017,9.728839,-0.008256,-0.008256,-0.015446
1980-01-06T00:04:29.751360105Z,-0.005986,-0.128090,9.815030,-0.005859,-0.009055,-0.011185
1980-01-06T00:04:29.771221095Z,0.014365,-0.108936,9.733627,-0.006392,-0.005193,-0.012251
1980-01-06T00:04:29.791091042Z,0.001197,-0.231040,9.685743,-0.013183,-0.006924,-0.012251
1980-01-06T00:04:29.850678178Z,0.025139,-0.053870,9.755175,-0.008389,-0.012117,-0.002131
1980-01-06T00:04:29.870559324Z,-0.113725,-0.175974,9.692327,0.005726,-0.012916,0.031958
1980-01-06T00:04:29.890426667Z,0.086191,-0.174777,9.706693,0.013449,-0.003196,0.037284
1980-01-06T00:04:29.910382344Z,-0.019154,-0.245406,9.697116,0.024235,-0.004794,0.028762
1980-01-06T00:04:29.930167917Z,0.003591,-0.158017,9.701904,0.020506,-0.007191,-0.014914
1980-01-06T00:04:29.950023751Z,-0.002394,-0.162806,9.714474,0.033423,-0.015713,-0.011185
1980-01-06T00:04:29.989770365Z,0.061052,-0.134075,9.743204,0.081892,-0.015846,0.017577
1980-01-06T00:04:30.009621667Z,-0.069432,-0.149638,9.719262,0.119576,-0.014248,-0.009055
1980-01-06T00:04:30.029639636Z,-0.179565,-0.026336,9.738416,0.157925,-0.009721,-0.016512
1980-01-06T00:04:30.049242344Z,-0.253785,0.204704,9.728839,0.286955,-0.007057,-0.033556
1980-01-06T00:04:30.069110678Z,-0.524330,0.047884,9.696517,0.316383,-0.008123,0.012783
1980-01-06T00:04:30.128853803Z,-0.180762,0.189142,9.807847,0.114516,0.044608,0.031958
1980-01-06T00:04:30.148715261Z,-0.143652,0.096965,9.881169,0.100268,0.062451,0.023968
1980-01-06T00:04:30.168602813Z,-0.053870,0.203507,10.101437,0.081892,0.068843,0.034621
1980-01-06T00:04:30.188454584Z,-0.111330,0.235829,10.015245,0.106660,0.077098,0.025034
1980-01-06T00:04:30.208344115Z,-0.092177,0.168791,9.737517,0.118910,0.062717,0.013316
1980-01-06T00:04:30.228352084Z,-0.128090,0.172383,9.598654,0.081892,0.044075,0.009055
1980-01-06T00:04:30.248078542Z,-0.119710,0.254982,9.586384,0.049402,-0.019042,0.029827
1980-01-06T00:04:30.287815209Z,-0.313640,0.196325,9.414001,0.022104,0.000399,0.028762
1980-01-06T00:04:30.307672344Z,-0.308852,0.213084,9.366117,-0.038483,0.013715,0.046872
1980-01-06T00:04:30.327535157Z,-0.219069,0.287304,9.658210,-0.041545,-0.028496,0.056459
1980-01-06T00:04:30.347405417Z,-0.205901,0.359130,9.797073,0.025300,-0.053796,0.049002
1980-01-06T00:04:30.367343334Z,-0.221464,0.241814,9.710882,0.064582,-0.025699,0.041545
1980-01-06T00:04:30.387145990Z,-0.180762,0.220267,9.658210,0.047804,0.007324,0.051133
1980-01-06T00:04:30.426761459Z,-0.084994,0.362722,9.764751,0.033156,0.007723,0.037284
1980-01-06T00:04:30.446614375Z,-0.090980,0.395043,9.742306,0.043276,-0.015180,0.030360
1980-01-06T00:04:30.466494428Z,-0.156820,0.263362,9.665691,0.028762,-0.017976,0.042078
1980-01-06T00:04:30.486353542Z,-0.096965,0.439336,9.967360,0.016245,0.012650,0.026099
1980-01-06T00:04:30.506215261Z,-0.049081,0.403423,9.862016,0.039814,-0.006525,0.017577
1980-01-06T00:04:30.526103021Z,-0.113725,0.351948,9.809343,0.042344,-0.028096,0.028229
1980-01-06T00:04:30.545953073Z,-0.094571,0.360327,9.727941,0.017843,-0.049268,0.039947
1980-01-06T00:04:30.565881875Z,-0.076614,0.422577,9.814132,0.023702,-0.052065,0.037817
1980-01-06T00:04:30.585710573Z,-0.064643,0.409408,9.929053,0.060454,-0.025433,0.045274
1980-01-06T00:04:30.605556875Z,0.044293,0.281319,9.838972,0.076433,-0.007590,0.023968
1980-01-06T00:04:30.625447084Z,0.009577,0.432153,9.819818,0.081359,-0.073237,0.027164
1980-01-06T00:04:30.645300105Z,-0.026336,0.446519,9.733627,0.097472,-0.079362,0.029295
1980-01-06T00:04:30.665178177Z,0.019154,0.383072,9.719262,0.091080,-0.054195,0.023968
1980-01-06T00:04:30.685193021Z,-0.047884,0.448913,9.630676,0.066046,-0.068843,0.042611
1980-01-06T00:04:30.705059480Z,-0.089783,0.469264,9.764751,0.069775,-0.047804,0.046872
1980-01-06T00:04:30.724919115Z,-0.005986,0.535104,9.779117,0.090681,-0.021971,0.033023
1980-01-06T00:04:30.744797344Z,-0.107739,0.548272,9.827001,0.127698,-0.059655,0.057524
1980-01-06T00:04:30.764754636Z,-0.023942,0.475249,9.563639,0.099868,-0.065780,0.036219
1980-01-06T00:04:30.784534375Z,-0.153229,0.568623,9.668983,0.070574,-0.072571,0.055394
1980-01-06T00:04:30.804379115Z,-0.070629,0.578200,9.783307,0.085354,-0.042477,0.039415
1980-01-06T00:04:30.824332657Z,-0.051475,0.633266,9.663596,0.094942,-0.033689,0.039415
1980-01-06T00:04:30.844142344Z,-0.077812,0.573411,9.610924,0.073636,-0.069908,0.061785
1980-01-06T00:04:30.864017136Z,-0.061052,0.603339,9.654019,0.045407,-0.060054,0.056459
1980-01-06T00:04:30.883948177Z,0.025139,0.688333,9.752781,0.042344,-0.044075,0.067644
1980-01-06T00:04:30.903771667Z,0.041899,0.733823,9.824607,0.067112,-0.058589,0.074036
1980-01-06T00:04:30.923608646Z,-0.005986,0.743400,9.747993,0.102798,-0.051532,0.066579
1980-01-06T00:04:30.943477917Z,0.041899,0.602142,9.592369,0.085754,-0.039015,0.084156
1980-01-06T00:04:30.963490886Z,0.035913,0.657208,9.567828,0.049934,-0.025966,0.096939
1980-01-06T00:04:30.983151354Z,0.099359,0.739808,9.745000,0.044075,-0.031425,0.101200
1980-01-06T00:04:31.003232552Z,0.075417,0.702698,9.721058,0.063916,-0.047937,0.090547
1980-01-06T00:04:31.042830313Z,0.129287,0.743400,9.711481,0.065780,-0.010253,0.094808
1980-01-06T00:04:31.062727969Z,0.153229,0.721852,9.778519,0.084688,-0.031958,0.086286
1980-01-06T00:04:31.082648802Z,0.117316,0.717063,9.532514,0.055394,-0.059388,0.097472
1980-01-06T00:04:31.102436198Z,0.034716,0.796072,9.561244,0.038749,-0.025699,0.093211
1980-01-06T00:04:31.122316354Z,0.099359,0.883460,9.594764,0.048603,-0.002929,0.090015
1980-01-06T00:04:31.142188750Z,0.146046,0.782904,9.637859,0.027431,-0.044075,0.097472
1980-01-06T00:04:31.162047813Z,0.070629,0.793678,9.824607,0.021838,-0.067644,0.085754
1980-01-06T00:04:31.181922344Z,0.058658,0.888249,9.915586,0.050999,-0.075101,0.088950
1980-01-06T00:04:31.201771719Z,-0.105345,0.872687,9.640253,0.076965,-0.020373,0.100135
1980-01-06T00:04:31.221653125Z,0.004788,0.833182,9.520543,0.071240,0.083756,0.075634
1980-01-06T00:04:31.241582813Z,0.096965,0.909797,9.750386,0.037950,0.052331,0.102265
1980-01-06T00:04:31.261408542Z,0.074220,0.889446,9.740809,0.029028,0.010653,0.111853
1980-01-06T00:04:31.281254584Z,0.037110,0.861913,9.539697,0.005992,0.019308,0.099070
1980-01-06T00:04:31.301135104Z,-0.026336,0.830788,9.518148,-0.020773,0.049801,0.095341
1980-01-06T00:04:31.340866042Z,0.077812,0.827197,9.637859,-0.018908,0.089615,0.118777
1980-01-06T00:04:31.360742083Z,0.102951,0.797269,9.671378,-0.012650,0.098670,0.118777
1980-01-06T00:04:31.380600521Z,0.105345,0.863110,9.674371,-0.014381,0.071373,0.123038
1980-01-06T00:04:31.400467708Z,0.128090,0.750582,9.588180,-0.022104,0.063117,0.133691
1980-01-06T00:04:31.420377396Z,0.019154,0.841562,9.736620,-0.026632,0.063783,0.145408
1980-01-06T00:04:31.440207292Z,0.088585,0.775721,9.808446,0.000932,0.046872,0.149670
1980-01-06T00:04:31.499812031Z,0.090980,0.715866,9.664794,0.027697,-0.060986,0.158192
1980-01-06T00:04:31.519696302Z,0.098162,0.762553,9.698313,0.004794,-0.022104,0.153931
1980-01-06T00:04:31.539552708Z,0.225055,0.774524,9.727043,0.007457,-0.023968,0.153931
1980-01-06T00:04:31.559404688Z,0.215478,0.827197,9.707291,0.024501,-0.029028,0.155528
1980-01-06T00:04:31.579343958Z,0.205901,0.808043,9.726444,0.049535,-0.037551,0.144876
1980-01-06T00:04:31.599140781Z,0.324414,0.755371,9.724349,0.031692,-0.054195,0.104928
1980-01-06T00:04:31.619034583Z,0.256180,0.858321,9.781811,0.026632,-0.100268,0.123038
1980-01-06T00:04:31.638905833Z,0.186748,0.818817,9.733926,0.017577,-0.077897,0.131560
1980-01-06T00:04:31.658859688Z,0.120907,0.873884,9.662100,0.030759,-0.017044,0.119842
1980-01-06T00:04:31.678705104Z,0.034716,0.860716,9.657311,0.034621,0.028895,0.116646
1980-01-06T00:04:31.698517813Z,0.032322,0.888249,9.777022,0.040746,0.043809,0.125168
1980-01-06T00:04:31.718378333Z,0.050278,0.841562,9.800964,0.042211,-0.013316,0.135821
1980-01-06T00:04:31.738218125Z,0.023942,0.824802,9.697714,0.019974,-0.077098,0.147006
1980-01-06T00:04:31.758128229Z,-0.124498,0.835576,9.951499,-0.011851,-0.064448,0.190682
1980-01-06T00:04:31.778087812Z,-0.001197,0.968455,9.798270,0.015446,-0.012251,0.162985
1980-01-06T00:04:31.797830990Z,0.093374,0.632069,9.410410,-0.070707,-0.035287,0.175768
1980-01-06T00:04:31.817702292Z,0.113725,0.883460,9.922769,0.024102,-0.038749,0.182160
1980-01-06T00:04:31.837590156Z,-0.142455,0.860716,9.625888,0.059255,0.036485,0.182160
1980-01-06T00:04:31.857444687Z,0.221464,0.901417,9.520543,0.059255,0.085887,0.136354
1980-01-06T00:04:31.877415417Z,0.193930,0.907402,9.678560,0.041545,-0.022903,0.209857
1980-01-06T00:04:31.897164115Z,0.198719,0.861913,9.927557,0.049535,0.049268,0.154463
1980-01-06T00:04:31.917068750Z,0.106542,0.864307,9.443929,-0.015446,0.008389,0.191747
1980-01-06T00:04:31.956777760Z,0.079009,0.916979,9.711481,0.028496,0.000266,0.201335
1980-01-06T00:04:31.976635885Z,0.152032,0.804452,9.525331,0.041945,-0.008922,0.222640
1980-01-06T00:04:31.996698333Z,0.227449,0.836774,9.520543,0.017444,0.007191,0.186421
1980-01-06T00:04:32.016554010Z,0.227449,0.910994,9.558850,-0.000666,-0.034355,0.224771
1980-01-06T00:04:32.036258646Z,0.329203,0.927753,9.764751,0.022104,0.008922,0.197074
1980-01-06T00:04:32.056130677Z,0.393846,0.992397,9.831789,0.003595,0.004527,0.198139
1980-01-06T00:04:32.095856302Z,0.274136,1.063026,9.841366,0.021305,-0.031292,0.190682
1980-01-06T00:04:32.115805521Z,0.322020,1.001973,9.793482,0.044475,-0.003995,0.182160
1980-01-06T00:04:32.135598906Z,0.239420,0.939724,9.831789,0.037551,-0.011718,0.188552
1980-01-06T00:04:32.155478385Z,0.276530,0.927753,9.860519,0.015713,-0.014115,0.201335
1980-01-06T00:04:32.175344948Z,0.329203,0.944513,9.885060,0.031292,-0.041013,0.182693
1980-01-06T00:04:32.195192760Z,0.237026,0.991199,9.779716,0.059522,-0.088151,0.202933
1980-01-06T00:04:32.215214219Z,0.220267,0.972046,9.645640,0.079096,-0.036086,0.195476
1980-01-06T00:04:32.254814687Z,0.243011,0.972046,9.723152,0.066046,-0.007191,0.216781
1980-01-06T00:04:32.274704062Z,0.266953,1.029507,9.660903,0.061386,-0.049135,0.209324
1980-01-06T00:04:32.294562916Z,0.248997,0.976834,9.622596,0.026898,-0.053263,0.215716
1980-01-06T00:04:32.314419114Z,0.263362,1.039083,9.464579,0.044475,0.002264,0.214651
1980-01-06T00:04:32.334389010Z,0.282516,1.122881,9.785401,0.065247,0.008522,0.229564
1980-01-06T00:04:32.354175052Z,0.333991,0.970849,9.636961,0.052997,0.011318,0.228499
1980-01-06T00:04:32.373891354Z,0.351948,1.047463,9.708787,0.008123,0.016378,0.230630
1980-01-06T00:04:32.393884791Z,0.345962,1.234211,9.772234,0.021705,0.039148,0.223173
1980-01-06T00:04:32.413850937Z,0.248997,1.255759,9.939828,0.054728,0.018642,0.238086
1980-01-06T00:04:32.433633906Z,0.205901,1.170765,9.963770,0.043010,0.019574,0.253000
1980-01-06T00:04:32.453659323Z,0.156820,1.193510,10.016442,0.048203,0.027297,0.273240
1980-01-06T00:04:32.473388541Z,0.231040,1.118092,10.140941,0.078829,0.005859,0.274305
1980-01-06T00:04:32.493232343Z,0.248997,1.156399,10.108319,0.149403,-0.062451,0.279099
1980-01-06T00:04:32.513106771Z,0.245406,1.096544,9.888053,0.100268,-0.038483,0.279099
1980-01-06T00:04:32.533045000Z,0.746991,1.298854,9.452309,0.067511,-0.011052,0.233293
1980-01-06T00:04:32.553028906Z,0.592565,1.280898,9.706693,0.161521,-0.088151,0.255663
1980-01-06T00:04:32.572713229Z,0.602142,1.189918,9.625888,0.134490,-0.110122,0.251402
1980-01-06T00:04:32.592571458Z,0.584185,1.186327,9.688137,0.131560,-0.087485,0.238619
1980-01-06T00:04:32.612688281Z,0.638055,1.237802,9.807847,0.148338,-0.059522,0.225836
1980-01-06T00:04:32.632354895Z,0.653617,1.228225,9.736021,0.171507,-0.054462,0.198139
1980-01-06T00:04:32.652205885Z,0.573411,1.236605,9.563040,0.167779,-0.043942,0.188552
1980-01-06T00:04:32.672067760Z,0.666785,1.339556,9.591770,0.143677,-0.018376,0.177899
1980-01-06T00:04:32.691929166Z,0.632069,1.383849,9.736021,0.132758,-0.054728,0.178964
1980-01-06T00:04:32.711806041Z,0.529119,1.353921,9.692925,0.123038,-0.062584,0.187486
1980-01-06T00:04:32.731684166Z,0.592565,1.381454,9.558850,0.126367,-0.045673,0.177899
1980-01-06T00:04:32.751455468Z,0.586579,1.350330,9.501390,0.131427,-0.058856,0.180030
1980-01-06T00:04:32.771503958Z,0.615310,1.295263,9.393650,0.121573,-0.088417,0.169910
1980-01-06T00:04:32.791296250Z,0.591368,1.307234,9.235633,0.092412,-0.083623,0.163518
1980-01-06T00:04:32.811292187Z,0.617704,1.361104,9.297882,0.055660,-0.058723,0.173105
1980-01-06T00:04:32.831030989Z,0.621295,1.458069,9.360431,0.062584,-0.026765,0.156061
1980-01-06T00:04:32.870761197Z,0.657208,1.470040,9.386468,0.045673,-0.074835,0.165116
1980-01-06T00:04:32.890619375Z,0.642843,1.510741,9.446322,0.022104,-0.075367,0.168844
1980-01-06T00:04:32.910555468Z,0.652420,1.487996,9.403227,-0.001731,-0.048203,0.176301
1980-01-06T00:04:32.930367395Z,0.761356,1.464054,9.599552,-0.019974,-0.008389,0.178432
1980-01-06T00:04:32.950242083Z,0.794875,1.472434,9.661801,-0.029827,0.017843,0.156061
1980-01-06T00:04:32.970105572Z,0.816423,1.467646,9.680955,-0.039947,0.003462,0.146474
1980-01-06T00:04:33.009835833Z,0.733823,1.440112,9.898827,-0.008788,0.024235,0.156594
1980-01-06T00:04:33.029713020Z,0.802058,1.406593,9.807847,0.047005,-0.018509,0.155528
1980-01-06T00:04:33.049599322Z,0.767342,1.483208,9.764751,0.041412,-0.044608,0.160855
1980-01-06T00:04:33.069443697Z,0.780510,1.468843,9.731233,0.058190,-0.002397,0.160855
1980-01-06T00:04:33.089320052Z,0.885855,1.577779,9.664195,0.039548,0.014248,0.161920
1980-01-06T00:04:33.109263906Z,0.995988,1.701080,9.807847,0.019574,-0.053663,0.169377
1980-01-06T00:04:33.129056562Z,1.054646,1.629254,9.879673,0.028229,-0.087618,0.166181
1980-01-06T00:04:33.168787135Z,1.049857,1.442507,9.937134,0.060986,-0.121440,0.138484
1980-01-06T00:04:33.188674791Z,1.005565,1.508347,9.941922,0.073370,-0.183092,0.126766
1980-01-06T00:04:33.208559895Z,0.905008,1.477222,9.874885,0.120907,-0.163784,0.112918
1980-01-06T00:04:33.228451927Z,0.969652,1.377863,9.730335,0.127033,-0.104928,0.107059
1980-01-06T00:04:33.248249843Z,0.967257,1.516727,9.697116,0.134356,-0.087218,0.109722
1980-01-06T00:04:33.288053437Z,0.955287,1.529895,9.428665,0.167113,-0.083889,0.110255
1980-01-06T00:04:33.307863958Z,1.115698,1.570596,9.538799,0.177633,-0.084688,0.094276
1980-01-06T00:04:33.327734010Z,1.266533,1.665167,9.539098,0.182426,-0.143145,0.087352
1980-01-06T00:04:33.347625937Z,1.122881,1.685518,9.352350,0.194810,-0.183758,0.068177
1980-01-06T00:04:33.367473072Z,1.041478,1.722628,9.330503,0.169111,-0.129829,0.065514
1980-01-06T00:04:33.387340051Z,1.017536,1.662773,9.421483,0.165249,-0.078696,0.083623
1980-01-06T00:04:33.407300572Z,1.076194,1.685518,9.411906,0.180296,-0.031026,0.072971
1980-01-06T00:04:33.427092031Z,1.103727,1.790863,9.459790,0.195609,-0.052597,0.077232
1980-01-06T00:04:33.466811770Z,1.163582,1.883040,9.469367,0.179231,-0.137818,0.063383
1980-01-06T00:04:33.486693333Z,1.167173,1.977611,9.435848,0.199071,-0.117445,0.075101
1980-01-06T00:04:33.506642291Z,1.114501,2.068590,9.378387,0.231695,-0.066845,0.086819
1980-01-06T00:04:33.526428541Z,1.313220,2.273294,9.905111,0.382430,-0.012384,0.075101
1980-01-06T00:04:33.546306822Z,0.998382,2.250550,9.292196,0.249005,-0.023303,0.121973
1980-01-06T00:04:33.566179062Z,1.159991,2.116474,9.780015,0.229431,-0.020373,0.134756
1980-01-06T00:04:33.586044322Z,1.146823,2.212242,9.684247,0.295611,-0.009854,0.108124
1980-01-06T00:04:33.606067603Z,1.169568,2.268506,9.487922,0.260191,-0.050866,0.132625
1980-01-06T00:04:33.625785937Z,1.192312,2.409764,9.349058,0.246209,-0.054728,0.125168
1980-01-06T00:04:33.645657239Z,1.254562,2.531868,9.400833,0.233559,-0.086686,0.131027
1980-01-06T00:04:33.665512968Z,1.253365,2.418144,9.281123,0.184823,-0.125302,0.143811
1980-01-06T00:04:33.685382760Z,1.177947,2.487576,9.333796,0.145941,-0.102532,0.153398
1980-01-06T00:04:33.705262083Z,1.253365,2.487576,9.434352,0.151800,-0.054595,0.162985
1980-01-06T00:04:33.725264374Z,1.308431,2.433706,9.501390,0.171374,-0.052997,0.166181
1980-01-06T00:04:33.745008385Z,1.460463,2.343924,9.305065,0.154596,-0.100534,0.160855
1980-01-06T00:04:33.764764739Z,1.291672,2.312799,9.540594,0.173505,-0.152466,0.174171
1980-01-06T00:04:33.784684374Z,1.250970,2.318784,9.325715,0.180562,-0.151667,0.185888
1980-01-06T00:04:33.804617864Z,1.143231,2.428918,9.373599,0.187753,-0.078963,0.212520
1980-01-06T00:04:33.824461249Z,1.192312,2.452860,9.296985,0.221575,0.044608,0.219977
1980-01-06T00:04:33.844323489Z,1.583764,2.410961,9.405622,0.202800,0.068044,0.248206
1980-01-06T00:04:33.864057603Z,1.792060,2.589329,9.482236,0.198405,0.041945,0.216248
1980-01-06T00:04:33.884062499Z,1.835156,2.647987,9.338584,0.214118,-0.046472,0.190682
1980-01-06T00:04:33.903921666Z,1.693898,2.749741,9.247604,0.235956,-0.057791,0.156594
1980-01-06T00:04:33.923810155Z,1.583764,2.752135,9.132683,0.251802,-0.049002,0.136354
1980-01-06T00:04:33.943696457Z,1.731008,2.683900,9.182063,0.230097,-0.067644,0.119842
1980-01-06T00:04:33.963445780Z,1.808819,2.865860,9.263166,0.250470,-0.107192,0.110787
1980-01-06T00:04:33.983413801Z,1.792060,2.841918,9.162610,0.280031,-0.073104,0.091613
1980-01-06T00:04:34.003411770Z,1.868674,2.950854,9.114726,0.267115,-0.048736,0.088417
1980-01-06T00:04:34.023159426Z,1.904588,3.016694,9.205706,0.251003,-0.052997,0.086286
1980-01-06T00:04:34.043032551Z,2.005144,2.993949,9.320627,0.269379,-0.045939,0.057524
1980-01-06T00:04:34.082726718Z,1.892616,3.101688,9.312247,0.289086,-0.125035,0.014381
1980-01-06T00:04:34.102599895Z,1.849521,3.154361,9.206903,0.336890,-0.077365,-0.000533
1980-01-06T00:04:34.122489687Z,1.708263,3.216610,8.969876,0.322242,-0.046339,0.013848
1980-01-06T00:04:34.142351562Z,1.600524,3.294421,8.993818,0.294545,0.024235,0.019175
1980-01-06T00:04:34.162217812Z,1.762132,3.313575,9.089587,0.298673,-0.001864,0.015979
1980-01-06T00:04:34.182094270Z,1.818396,3.326743,8.989030,0.284159,-0.135422,0.021305
1980-01-06T00:04:34.221824322Z,1.698686,3.505111,8.768764,0.251669,-0.107192,0.037284
1980-01-06T00:04:34.241708176Z,1.729811,3.576937,8.672996,0.243546,-0.001598,0.078829
1980-01-06T00:04:34.261547082Z,1.843535,3.547010,8.687361,0.208525,0.118111,0.107592
1980-01-06T00:04:34.281475884Z,2.096124,3.598485,8.785523,0.198272,0.133957,0.090015
1980-01-06T00:04:34.301321197Z,2.297236,3.500323,8.838196,0.188818,-0.003728,0.045274
1980-01-06T00:04:34.321159895Z,2.172738,3.539827,8.766370,0.184956,-0.147406,-0.009055
1980-01-06T00:04:34.341139114Z,1.938106,3.489549,8.589199,0.186421,-0.182293,-0.048469
1980-01-06T00:04:34.380686509Z,1.826776,3.440468,8.674492,0.167646,-0.073770,-0.056992
1980-01-06T00:04:34.400632499Z,1.893813,3.768473,8.861239,0.156594,-0.069508,-0.065514
1980-01-06T00:04:34.420596874Z,1.883040,3.810372,8.870816,0.173505,-0.091746,-0.082558
1980-01-06T00:04:34.440403072Z,1.819593,3.696647,8.880393,0.185489,-0.137818,-0.102798
1980-01-06T00:04:34.460267343Z,1.798046,3.654749,8.792706,0.199204,-0.190283,-0.121440
1980-01-06T00:04:34.480115780Z,1.781286,3.659537,8.931569,0.196674,-0.261123,-0.120375
1980-01-06T00:04:34.519888384Z,1.766921,3.854665,8.682572,0.148205,-0.212254,-0.094808
1980-01-06T00:04:34.539756926Z,1.764527,3.994725,8.778340,0.143012,-0.173904,-0.072438
1980-01-06T00:04:34.559593489Z,1.878251,3.965995,8.864532,0.185223,-0.144476,-0.074568
1980-01-06T00:04:34.579478436Z,1.921347,3.945644,8.749610,0.213319,-0.170575,-0.080960
1980-01-06T00:04:34.599333020Z,1.927332,3.930082,8.601170,0.217846,-0.204797,-0.079895
1980-01-06T00:04:34.619229218Z,1.884237,4.082114,8.495825,0.194810,-0.199737,-0.076699
1980-01-06T00:04:34.639073176Z,1.843535,4.210204,8.409634,0.192813,-0.181095,-0.057524
1980-01-06T00:04:34.678803801Z,2.062605,4.086902,8.203732,0.169510,-0.083357,-0.012783
1980-01-06T00:04:34.698690988Z,2.264915,4.150349,8.299500,0.155262,-0.100002,-0.017044
1980-01-06T00:04:34.718540884Z,2.361880,4.224569,8.294712,0.169510,-0.183891,-0.037284
1980-01-06T00:04:34.738420207Z,2.345121,4.175488,8.227674,0.169111,-0.259924,-0.063916
1980-01-06T00:04:34.758424166Z,2.302025,4.266468,8.242040,0.154730,-0.284692,-0.078829
1980-01-06T00:04:34.778167811Z,2.190695,4.274847,8.117541,0.136221,-0.271775,-0.074568
1980-01-06T00:04:34.798038593Z,2.250550,4.353856,8.242040,0.124636,-0.219577,-0.053263
1980-01-06T00:04:34.817908384Z,2.413355,4.341885,8.311471,0.147273,-0.121174,-0.059122
1980-01-06T00:04:34.837770207Z,2.470816,4.362236,8.105570,0.151800,-0.083756,-0.037817
1980-01-06T00:04:34.857718645Z,2.474407,4.434062,8.182184,0.155395,-0.031159,-0.038882
1980-01-06T00:04:34.877535624Z,2.579752,4.382586,8.186973,0.177766,-0.060321,-0.064448
1980-01-06T00:04:34.897358020Z,2.631228,4.349067,8.148665,0.171774,-0.143544,-0.107059
1980-01-06T00:04:34.917232134Z,2.630031,4.503493,8.225280,0.163252,-0.241149,-0.139017
1980-01-06T00:04:34.937112030Z,2.500744,4.582502,7.961918,0.174037,-0.272707,-0.182693
1980-01-06T00:04:34.957015155Z,2.450465,4.496311,7.823054,0.167380,-0.303067,-0.183758
1980-01-06T00:04:34.976835832Z,2.381034,4.644751,7.854179,0.138484,-0.268846,-0.186421
1980-01-06T00:04:34.996713384Z,2.388216,4.608838,7.815871,0.110787,-0.236622,-0.164051
1980-01-06T00:04:35.016611613Z,2.415750,4.715380,7.696161,0.080561,-0.171774,-0.153398
1980-01-06T00:04:35.036455832Z,2.454057,4.757279,7.777564,0.078297,-0.123837,-0.155528
1980-01-06T00:04:35.056171665Z,2.630031,4.741716,7.744045,0.086952,-0.102931,-0.178964
1980-01-06T00:04:35.076240520Z,2.730587,4.768053,7.765593,0.061253,-0.175635,-0.203998
1980-01-06T00:04:35.096152447Z,2.612074,4.795586,7.708132,0.048469,-0.252467,-0.230630
1980-01-06T00:04:35.135886822Z,2.567781,4.791995,7.559692,0.031825,-0.305331,-0.225303
1980-01-06T00:04:35.155518072Z,2.577358,4.772841,7.560889,-0.006924,-0.260191,-0.211987
1980-01-06T00:04:35.175532030Z,2.659958,4.849455,7.589619,-0.020373,-0.186155,-0.199204
1980-01-06T00:04:35.195397290Z,2.825158,4.869806,7.714118,-0.016911,-0.129962,-0.205596
1980-01-06T00:04:35.215351249Z,2.847903,4.909311,7.846996,-0.005060,-0.155528,-0.228499
1980-01-06T00:04:35.235153020Z,2.876633,4.891354,7.842207,-0.000133,-0.201601,-0.255131
1980-01-06T00:04:35.255007394Z,2.814384,4.848258,7.875727,0.009454,-0.253266,-0.275371
1980-01-06T00:04:35.294744530Z,2.736573,4.905719,7.894880,-0.041812,-0.218113,-0.272175
1980-01-06T00:04:35.314618228Z,2.758120,4.984728,7.947553,-0.025833,-0.147672,-0.258326
1980-01-06T00:04:35.334492134Z,2.730587,5.029021,7.885303,-0.009587,-0.107858,-0.257261
1980-01-06T00:04:35.354353853Z,2.705448,5.018247,7.875727,-0.014914,-0.131161,-0.253000
1980-01-06T00:04:35.374249061Z,2.646790,5.073313,7.849391,-0.023569,-0.148338,-0.260990
1980-01-06T00:04:35.394127863Z,2.644396,5.070919,7.763199,-0.020639,-0.174703,-0.266316
1980-01-06T00:04:35.433859894Z,2.574964,5.153519,7.648277,-0.087352,-0.157925,-0.237554
1980-01-06T00:04:35.453698436Z,2.614468,5.207389,7.748834,-0.085887,-0.122239,-0.232227
1980-01-06T00:04:35.473570832Z,2.644396,5.057751,7.710526,-0.078031,-0.124636,-0.234358
1980-01-06T00:04:35.493444842Z,2.726996,5.030218,7.830236,-0.104263,-0.160455,-0.223705
1980-01-06T00:04:35.513339946Z,2.655170,4.933253,7.804200,-0.121041,-0.197606,-0.231695
1980-01-06T00:04:35.533240832Z,2.703054,4.812346,7.914333,-0.118644,-0.194677,-0.235956
1980-01-06T00:04:35.553040728Z,2.737770,4.921282,7.995736,-0.089482,-0.179630,-0.238086
1980-01-06T00:04:35.592795311Z,2.647987,4.882974,7.861660,-0.060986,-0.184157,-0.229564
1980-01-06T00:04:35.612680363Z,2.718616,4.824317,7.847295,-0.076699,-0.163917,-0.228499
1980-01-06T00:04:35.632538332Z,2.713828,4.927267,7.976582,-0.076965,-0.158192,-0.221042
1980-01-06T00:04:35.652387134Z,2.725799,4.905719,7.962217,-0.045939,-0.139150,-0.238086
1980-01-06T00:04:35.672261769Z,2.725799,4.856638,7.939771,-0.032757,-0.132625,-0.247141
1980-01-06T00:04:35.692131144Z,2.722207,4.902128,7.844003,-0.057524,-0.146074,-0.240750
1980-01-06T00:04:35.731869165Z,2.737770,5.063736,7.909544,-0.065514,-0.139550,-0.241282
1980-01-06T00:04:35.751727498Z,2.670732,4.969166,7.837718,-0.037284,-0.147672,-0.250870
1980-01-06T00:04:35.771450103Z,2.688689,4.924873,7.789834,-0.082824,-0.173505,-0.257261
1980-01-06T00:04:35.791451926Z,2.680309,5.025429,7.847295,-0.158857,-0.202001,-0.234891
1980-01-06T00:04:35.811578644Z,2.715025,5.082890,7.904756,-0.189617,-0.191747,-0.217846
1980-01-06T00:04:35.831220780Z,2.715025,5.200206,8.021174,-0.137153,-0.158991,-0.225836
1980-01-06T00:04:35.851087967Z,2.738967,4.985925,7.877522,-0.096273,-0.169776,-0.235423
1980-01-06T00:04:35.890676248Z,2.677915,4.975151,7.915829,-0.134090,-0.252467,-0.259924
1980-01-06T00:04:35.910688905Z,2.643199,4.824317,7.762600,-0.122905,-0.254465,-0.253533
1980-01-06T00:04:35.930574738Z,2.668338,4.776433,7.676409,-0.144610,-0.196941,-0.270577
1980-01-06T00:04:35.950437863Z,2.624045,4.918888,7.800908,-0.190549,-0.203598,-0.239684
1980-01-06T00:04:35.970146092Z,2.533065,4.994305,7.882310,-0.166314,-0.152466,-0.220510
1980-01-06T00:04:35.990072759Z,2.594118,4.911705,7.800908,-0.123837,-0.104928,-0.216248
1980-01-06T00:04:36.010028905Z,2.552219,4.881777,7.701848,-0.150069,-0.134490,-0.192280
1980-01-06T00:04:36.049902967Z,2.634819,4.896142,7.625233,-0.274838,-0.110388,-0.170975
1980-01-06T00:04:36.069652290Z,2.669535,4.869806,7.520487,-0.338487,-0.070174,-0.160322
1980-01-06T00:04:36.089337498Z,2.669535,5.195418,7.889194,-0.360192,-0.054328,-0.119842
1980-01-06T00:04:36.109412446Z,2.753332,4.935647,7.798214,-0.312921,-0.006392,-0.115581
1980-01-06T00:04:36.129223644Z,2.890999,4.596867,7.786542,-0.316916,0.030893,-0.150202
1980-01-06T00:04:36.149088436Z,2.893393,4.600459,7.831733,-0.373109,0.013449,-0.174171
1980-01-06T00:04:36.168939686Z,2.819172,4.675876,7.902063,-0.398409,-0.026365,-0.196008
1980-01-06T00:04:36.188761769Z,2.747346,4.559757,8.141483,-0.361657,-0.060587,-0.208792
1980-01-06T00:04:36.208762811Z,2.669535,4.468778,8.127118,-0.306929,-0.026898,-0.211987
1980-01-06T00:04:36.228581040Z,2.541445,4.305972,7.964312,-0.278300,0.026765,-0.203465
1980-01-06T00:04:36.248551821Z,2.574964,4.296395,8.127118,-0.266582,0.052331,-0.193878
1980-01-06T00:04:36.268307602Z,2.625242,4.294001,8.184579,-0.242481,0.068443,-0.201335
1980-01-06T00:04:36.288198696Z,2.580950,4.334702,8.141483,-0.205196,0.069908,-0.219444
1980-01-06T00:04:36.308042707Z,2.463634,4.310760,8.002619,-0.202001,0.084156,-0.216248
1980-01-06T00:04:36.327930155Z,2.431312,4.335899,8.121132,-0.225303,0.109056,-0.202400
1980-01-06T00:04:36.347770154Z,2.414552,4.311957,8.202535,-0.232227,0.126500,-0.201335
1980-01-06T00:04:36.367691144Z,2.402581,4.327519,8.279149,-0.223572,0.108524,-0.194943
1980-01-06T00:04:36.387645988Z,2.378639,4.328717,8.341399,-0.214251,0.088683,-0.210922
1980-01-06T00:04:36.407384061Z,2.403779,4.169502,8.298303,-0.229964,0.081226,-0.218379
1980-01-06T00:04:36.427289738Z,2.419341,4.177882,8.350976,-0.254731,0.083889,-0.241815
1980-01-06T00:04:36.447158592Z,2.324770,4.249708,8.595184,-0.275237,0.001198,-0.232227
1980-01-06T00:04:36.486855936Z,2.212242,4.041412,8.513782,-0.227700,-0.002929,-0.259924
1980-01-06T00:04:36.506759425Z,2.093729,4.017470,8.471284,-0.222640,0.045007,-0.264185
1980-01-06T00:04:36.526609425Z,2.155979,4.024653,8.525752,-0.193745,0.069375,-0.273773
1980-01-06T00:04:36.546473436Z,2.110489,4.025850,8.592790,-0.185223,0.042344,-0.242880
1980-01-06T00:04:36.566314061Z,2.175132,3.755305,8.554482,-0.189883,0.012650,-0.251402
1980-01-06T00:04:36.586340884Z,2.147599,3.906140,8.592790,-0.202533,-0.045540,-0.266316
1980-01-06T00:04:36.606075259Z,2.159570,3.957615,8.664616,-0.181761,-0.090947,-0.299339
1980-01-06T00:04:36.645823279Z,2.069787,3.957615,8.540117,-0.143278,-0.109722,-0.322775
1980-01-06T00:04:36.665681873Z,2.094927,3.882198,8.540117,-0.156594,-0.074968,-0.304665
1980-01-06T00:04:36.685670519Z,2.037466,3.872621,8.564059,-0.164983,-0.052864,-0.291882
1980-01-06T00:04:36.705498696Z,2.035071,3.900155,8.530540,-0.141147,-0.039814,-0.307861
1980-01-06T00:04:36.725303175Z,2.015918,3.742137,8.324639,-0.117445,-0.084955,-0.313187
1980-01-06T00:04:36.745253956Z,1.939303,3.768473,8.271967,-0.132093,-0.092944,-0.307861
1980-01-06T00:04:36.765060936Z,1.938106,3.709816,8.355764,-0.155395,-0.087751,-0.285491
1980-01-06T00:04:36.784960311Z,1.968034,3.794810,8.317456,-0.160988,-0.081892,-0.271642
1980-01-06T00:04:36.804788592Z,1.989582,3.845088,8.336611,-0.163651,-0.072571,-0.254598
1980-01-06T00:04:36.824659946Z,2.047042,3.821146,8.365341,-0.175502,-0.051266,-0.252467
1980-01-06T00:04:36.844524061Z,2.015918,3.890578,8.365341,-0.177100,-0.051798,-0.265251
1980-01-06T00:04:36.864376613Z,1.935712,3.861847,8.202535,-0.161654,-0.062584,-0.301470
1980-01-06T00:04:36.884240988Z,1.863886,3.805584,8.154651,-0.199204,-0.121840,-0.304665
1980-01-06T00:04:36.904168956Z,1.916559,3.665523,8.432379,-0.279765,-0.129163,-0.275903
1980-01-06T00:04:36.943849633Z,1.974019,3.689465,8.667608,-0.241415,-0.048336,-0.220510
1980-01-06T00:04:36.963698383Z,2.015918,3.646369,8.658031,-0.209724,0.026898,-0.237554
1980-01-06T00:04:36.983610206Z,2.127248,3.509900,8.567052,-0.205196,0.011318,-0.255663
1980-01-06T00:04:37.003450831Z,2.082955,3.590106,8.662820,-0.220909,-0.009854,-0.278034
1980-01-06T00:04:37.023325050Z,1.970428,3.614048,8.744224,-0.199337,-0.005859,-0.286556
1980-01-06T00:04:37.043364998Z,1.951274,3.521871,8.692748,-0.184024,0.022637,-0.295611
1980-01-06T00:04:37.063066613Z,1.825579,3.494337,8.726267,-0.190150,0.031825,-0.287089
1980-01-06T00:04:37.082932863Z,1.708263,3.532645,8.716690,-0.178165,0.075634,-0.281762
1980-01-06T00:04:37.102796040Z,1.726219,3.414132,8.721478,-0.163651,0.121041,-0.273240
1980-01-06T00:04:37.122750988Z,1.811214,3.427300,8.817246,-0.183492,0.109855,-0.263653
1980-01-06T00:04:37.142536300Z,1.796848,3.356671,8.817246,-0.209857,0.079762,-0.275371
1980-01-06T00:04:37.162390988Z,1.702277,3.363853,8.970475,-0.225037,0.028762,-0.284958
1980-01-06T00:04:37.182311092Z,1.623269,3.423708,9.094974,-0.218778,-0.018908,-0.298806
1980-01-06T00:04:37.202150206Z,1.483208,3.260903,8.946533,-0.170575,-0.063516,-0.289219
1980-01-06T00:04:37.222017654Z,1.547851,3.173514,8.783728,-0.183758,-0.015579,-0.265783
1980-01-06T00:04:37.241949737Z,1.663970,3.296816,8.965687,-0.232227,0.031159,-0.235956
1980-01-06T00:04:37.261826665Z,1.692701,3.250129,8.956110,-0.211455,0.050334,-0.243413
1980-01-06T00:04:37.281634165Z,1.701080,3.312378,9.181165,-0.197340,0.057125,-0.263653
1980-01-06T00:04:37.301492394Z,1.532289,3.360262,9.184457,-0.185356,0.065647,-0.278566
1980-01-06T00:04:37.321422394Z,1.376666,3.192668,9.059958,-0.152599,0.066446,-0.292415
1980-01-06T00:04:37.341246248Z,1.259350,3.122039,9.016863,-0.148871,0.054328,-0.288154
1980-01-06T00:04:37.400833019Z,1.090559,3.008314,8.998607,-0.161920,0.019042,-0.263120
1980-01-06T00:04:37.420747498Z,1.136049,3.014300,8.960299,-0.194810,0.037684,-0.248206
1980-01-06T00:04:37.440566352Z,1.231817,2.998738,9.008183,-0.201468,0.039548,-0.230097
1980-01-06T00:04:37.460460206Z,1.306037,3.021482,9.077915,-0.185356,0.062584,-0.233825
1980-01-06T00:04:37.480318227Z,1.298854,3.038242,9.049185,-0.158991,0.075501,-0.233825
1980-01-06T00:04:37.500226248Z,1.284489,2.928109,8.972570,-0.144077,0.068976,-0.249804
1980-01-06T00:04:37.520068071Z,1.186327,2.914941,8.978256,-0.166314,0.017444,-0.237554
1980-01-06T00:04:37.559788435Z,1.024718,2.908955,8.997410,-0.135688,0.110122,-0.232227
1980-01-06T00:04:37.579667654Z,1.052252,2.825158,8.887277,-0.128098,0.120108,-0.232227
1980-01-06T00:04:37.599535467Z,1.001973,3.004723,8.926183,-0.153531,0.119709,-0.225836
1980-01-06T00:04:37.619372081Z,0.918176,3.049016,8.942642,-0.152998,0.115581,-0.219977
1980-01-06T00:04:37.639309789Z,0.823605,2.938883,8.928277,-0.147140,0.116247,-0.222107
1980-01-06T00:04:37.659130831Z,0.769736,2.968810,8.933065,-0.178698,0.061119,-0.210390
1980-01-06T00:04:37.679003123Z,0.758962,2.899378,8.942642,-0.213319,-0.003462,-0.196541
1980-01-06T00:04:37.698744425Z,0.785298,2.785654,9.043200,-0.237953,-0.028762,-0.191215
1980-01-06T00:04:37.718748644Z,0.794875,2.608483,9.053973,-0.247674,-0.055127,-0.188019
1980-01-06T00:04:37.738624373Z,0.749385,2.552219,9.144953,-0.261789,-0.084822,-0.180562
1980-01-06T00:04:37.758467081Z,0.713472,2.515109,9.051279,-0.249538,-0.100002,-0.174703
1980-01-06T00:04:37.778345883Z,0.656011,2.382231,9.080010,-0.254598,-0.087085,-0.170442
1980-01-06T00:04:37.798218435Z,0.644040,2.378639,9.167698,-0.254598,-0.058323,-0.142213
1980-01-06T00:04:37.818065883Z,0.675165,2.355895,9.089587,-0.241149,0.024901,-0.124636
1980-01-06T00:04:37.857869998Z,0.894234,2.383428,9.223662,-0.300271,0.116913,-0.080960
1980-01-06T00:04:37.877713904Z,0.930147,2.341529,9.257181,-0.278034,0.122106,-0.102265
1980-01-06T00:04:37.897561821Z,0.962469,2.297236,9.410410,-0.237021,0.105994,-0.121440
1980-01-06T00:04:37.917456873Z,0.932542,2.170344,9.324817,-0.215583,0.111320,-0.144343
1980-01-06T00:04:37.937352550Z,0.851139,2.227805,9.214684,-0.233293,0.083224,-0.135821
1980-01-06T00:04:37.957155883Z,0.743400,2.049437,9.238028,-0.261655,0.081759,-0.133158
1980-01-06T00:04:37.977023696Z,0.867898,2.055422,9.367314,-0.273506,0.085487,-0.139550
1980-01-06T00:04:37.996903904Z,0.957681,1.953669,9.534908,-0.303067,0.054462,-0.122505
1980-01-06T00:04:38.016687081Z,0.867898,1.933318,9.563639,-0.300404,0.075767,-0.125701
1980-01-06T00:04:38.036680571Z,0.791284,1.638831,9.621099,-0.285757,0.075367,-0.125701
1980-01-06T00:04:38.056559477Z,0.779313,1.446098,9.683349,-0.294545,0.100934,-0.137419
1980-01-06T00:04:38.076382550Z,0.754174,1.634043,9.783905,-0.289619,0.092811,-0.142745
1980-01-06T00:04:38.096127550Z,0.597353,1.699883,9.750386,-0.252867,0.064981,-0.143811
1980-01-06T00:04:38.116110102Z,0.509965,1.589750,9.607931,-0.185223,0.072704,-0.154463
1980-01-06T00:04:38.155846456Z,0.494403,1.364695,9.707291,-0.230496,0.125701,-0.124636
1980-01-06T00:04:38.175738018Z,0.482432,1.406593,9.621099,-0.207860,0.177500,-0.117179
1980-01-06T00:04:38.195455258Z,0.474052,1.483208,9.587581,-0.176567,0.216382,-0.131027
1980-01-06T00:04:38.215322081Z,0.513556,1.405396,9.592369,-0.173771,0.159923,-0.121440
1980-01-06T00:04:38.235165206Z,0.427365,1.408988,9.539697,-0.170043,0.161920,-0.154463
1980-01-06T00:04:38.255037862Z,0.422577,1.392228,9.616311,-0.184690,0.122905,-0.166181
1980-01-06T00:04:38.274906925Z,0.332794,1.484405,9.702502,-0.222640,0.102665,-0.160855
1980-01-06T00:04:38.294765310Z,0.240617,1.511938,9.812635,-0.219311,0.092145,-0.135288
1980-01-06T00:04:38.314651768Z,0.142455,1.368286,9.874885,-0.168312,0.117978,-0.127832
1980-01-06T00:04:38.334500622Z,0.153229,1.249773,9.879673,-0.162852,0.144876,-0.124636
1980-01-06T00:04:38.354386716Z,0.179565,1.252167,9.846154,-0.291350,0.129696,-0.085221
1980-01-06T00:04:38.374249216Z,0.277727,1.365892,10.238804,-0.264052,0.119043,-0.087352
1980-01-06T00:04:38.394113122Z,0.173580,1.295263,10.190920,-0.201468,0.145941,-0.104396
1980-01-06T00:04:38.414148695Z,0.094571,1.121683,10.080787,-0.133025,0.134756,-0.116114
1980-01-06T00:04:38.434032497Z,-0.046687,1.007959,10.071210,-0.139949,0.103331,-0.108657
1980-01-06T00:04:38.453863695Z,-0.168791,1.012747,9.937134,-0.129563,0.097338,-0.105461
1980-01-06T00:04:38.473756612Z,-0.211887,1.074997,9.927557,-0.090281,0.099070,-0.110787
1980-01-06T00:04:38.493618695Z,-0.168791,1.076194,9.850943,-0.088284,0.060321,-0.075634
1980-01-06T00:04:38.513488643Z,-0.126893,1.085770,9.750386,-0.127299,0.112252,-0.072438
1980-01-06T00:04:38.533424268Z,-0.134075,1.022324,9.627085,-0.145941,0.104396,-0.069242
1980-01-06T00:04:38.553196508Z,-0.116119,1.146823,9.765948,-0.185090,0.065647,-0.054328
1980-01-06T00:04:38.573094320Z,-0.129287,1.104924,9.923966,-0.182426,0.084955,-0.031958
1980-01-06T00:04:38.612862081Z,-0.134075,0.916979,9.765350,-0.145675,0.154197,-0.029295
1980-01-06T00:04:38.632702654Z,-0.152032,0.914585,9.774927,-0.144077,0.119975,-0.033556
1980-01-06T00:04:38.652555883Z,-0.160412,0.675165,9.372701,-0.118777,0.126101,-0.034621
1980-01-06T00:04:38.672477914Z,-0.193930,0.660800,9.899426,-0.096273,0.215450,-0.023968
1980-01-06T00:04:38.692435883Z,-0.022745,0.681150,10.023924,-0.075634,0.208126,-0.022903
1980-01-06T00:04:38.712168956Z,0.025139,0.925359,10.076596,-0.056992,0.195210,-0.051665
1980-01-06T00:04:38.732032497Z,-0.168791,0.964863,10.029311,0.016778,0.190549,-0.089482
1980-01-06T00:04:38.771763383Z,-0.427365,0.815226,9.722853,-0.048869,0.106660,-0.078829
1980-01-06T00:04:38.791645101Z,-0.428562,0.865504,9.713276,-0.093876,0.100135,-0.062851
1980-01-06T00:04:38.811522341Z,-0.456095,1.012747,9.780313,-0.110521,0.141813,-0.029827
1980-01-06T00:04:38.831468747Z,-0.470461,0.920571,9.775825,-0.083623,0.237953,-0.030360
1980-01-06T00:04:38.851225987Z,-0.463278,0.846350,9.736021,-0.073903,0.244212,-0.026632
1980-01-06T00:04:38.871115049Z,-0.503979,0.883460,9.783905,-0.074568,0.184956,-0.039415
1980-01-06T00:04:38.891052966Z,-0.681150,0.899023,9.798270,-0.057125,0.088683,-0.039415
1980-01-06T00:04:38.910917914Z,-0.743400,0.602142,9.573215,-0.073104,0.048469,-0.046872
1980-01-06T00:04:38.930717341Z,-0.787692,0.713472,9.534908,-0.096939,0.038216,-0.031958
1980-01-06T00:04:38.950585310Z,-0.882263,0.873884,9.630676,-0.106660,0.061253,-0.009587
1980-01-06T00:04:38.970466299Z,-0.823605,0.693121,9.554062,-0.078696,0.097338,-0.002131
1980-01-06T00:04:38.990332653Z,-0.831985,0.416591,9.319430,-0.067777,0.110521,-0.003196
1980-01-06T00:04:39.010210101Z,-0.855927,0.450110,9.333796,-0.145142,0.050999,0.018109
1980-01-06T00:04:39.030151247Z,-0.934936,0.577003,9.467871,-0.202267,0.000133,0.039415
1980-01-06T00:04:39.049979893Z,-0.940921,0.526724,9.447520,-0.201468,-0.012650,0.040480
1980-01-06T00:04:39.069801664Z,-1.009156,0.556652,9.356541,-0.216515,-0.017976,0.037284
1980-01-06T00:04:39.089776820Z,-0.964863,0.642843,9.394848,-0.252734,-0.086020,0.082025
1980-01-06T00:04:39.109550570Z,-0.822408,0.526724,9.265560,-0.243013,-0.034754,0.089482
1980-01-06T00:04:39.129418331Z,-0.605733,0.409408,9.275137,-0.263786,0.030094,0.108657
1980-01-06T00:04:39.149289737Z,-0.567426,0.489614,9.522937,-0.305198,0.084555,0.123038
1980-01-06T00:04:39.169156716Z,-0.719458,0.500388,9.302670,-0.292548,0.081759,0.116646
1980-01-06T00:04:39.189067966Z,-0.785298,0.427365,9.312247,-0.301070,0.031292,0.091080
1980-01-06T00:04:39.228749841Z,-0.847547,0.248997,9.357139,-0.377370,-0.031292,0.113983
1980-01-06T00:04:39.248613851Z,-0.791284,0.071826,9.482236,-0.392150,-0.039148,0.124636
1980-01-06T00:04:39.268500258Z,-0.831985,0.010774,9.329007,-0.419181,-0.048603,0.133158
1980-01-06T00:04:39.288361612Z,-0.756568,-0.120907,9.438541,-0.428902,-0.040480,0.148072
1980-01-06T00:04:39.308350362Z,-0.650026,-0.140061,9.405023,-0.460860,0.014781,0.150202
1980-01-06T00:04:39.328106560Z,-0.727837,-0.211887,9.451111,-0.454868,0.056725,0.147539
1980-01-06T00:04:39.347950674Z,-0.723049,-0.268151,9.728839,-0.417051,0.073237,0.164583
1980-01-06T00:04:39.367847601Z,-0.744597,-0.496797,9.728839,-0.387356,0.096273,0.147539
1980-01-06T00:04:39.387720726Z,-0.821211,-0.529119,9.642946,-0.417184,0.054328,0.166714
1980-01-06T00:04:39.407603799Z,-0.743400,-0.675165,9.500791,-0.457531,0.068576,0.166181
1980-01-06T00:04:39.427453955Z,-0.742203,-0.630872,9.807847,-0.470980,0.079495,0.181095
1980-01-06T00:04:39.447307028Z,-0.770933,-0.544681,9.858126,-0.459928,0.101733,0.193345
1980-01-06T00:04:39.467180153Z,-0.849942,-0.671574,9.853337,-0.390819,0.144343,0.160322
1980-01-06T00:04:39.487156560Z,-0.920571,-0.993594,9.773730,-0.418782,0.098271,0.180030
1980-01-06T00:04:39.526797549Z,-0.851139,-1.053449,10.205285,-0.380699,0.130362,0.151267
1980-01-06T00:04:39.546651299Z,-0.910994,-1.212663,10.080188,-0.290151,0.159523,0.132093
1980-01-06T00:04:39.566530674Z,-0.885855,-1.423353,9.850345,-0.320511,0.103730,0.124636
1980-01-06T00:04:39.586403955Z,-0.822408,-1.253365,9.879075,-0.397210,0.005992,0.140615
1980-01-06T00:04:39.606279737Z,-0.761356,-1.236605,9.965266,-0.347809,-0.024368,0.122505
1980-01-06T00:04:39.626120362Z,-0.763750,-1.584962,9.527725,-0.313587,-0.007723,0.101733
1980-01-06T00:04:39.665847809Z,-0.907402,-1.552640,9.345766,-0.343547,-0.033822,0.080427
1980-01-06T00:04:39.685732028Z,-1.021127,-1.637634,9.367314,-0.334093,-0.031825,0.090547
1980-01-06T00:04:39.705635726Z,-1.057040,-1.678335,9.261970,-0.303866,0.041412,0.090547
1980-01-06T00:04:39.725634841Z,-1.101333,-1.705869,9.400234,-0.281629,0.116247,0.087352
1980-01-06T00:04:39.745321507Z,-1.079785,-1.717840,9.467272,-0.272841,0.120641,0.109722
1980-01-06T00:04:39.765195414Z,-1.069011,-1.795651,9.333197,-0.253799,0.206528,0.080960
1980-01-06T00:04:39.785060257Z,-1.097741,-1.784877,9.318831,-0.255131,0.193745,0.075634
1980-01-06T00:04:39.824836195Z,-1.440112,-2.015918,9.254786,-0.257394,0.161121,0.051665
1980-01-06T00:04:39.844672184Z,-1.503559,-1.927332,9.489418,-0.236755,0.174836,0.062318
1980-01-06T00:04:39.864560205Z,-1.507150,-1.805228,9.733627,-0.194544,0.183891,0.078297
1980-01-06T00:04:39.884403330Z,-1.448492,-1.980005,9.647436,-0.171641,0.155928,0.072971
1980-01-06T00:04:39.904232653Z,-1.388637,-2.121263,9.551667,-0.215316,0.063117,0.091080
1980-01-06T00:04:39.924150466Z,-1.211466,-2.201468,9.874287,-0.225303,-0.041279,0.094808
1980-01-06T00:04:39.963889736Z,-1.143231,-2.206257,9.941324,-0.028895,-0.013049,0.035154
1980-01-06T00:04:39.983756768Z,-1.364695,-2.167950,9.756671,0.001465,-0.011185,0.048469
1980-01-06T00:04:40.003628903Z,-1.391031,-2.122460,9.713575,0.032357,-0.007191,0.042078
1980-01-06T00:04:40.023583955Z,-0.994791,-2.005144,9.970055,0.060321,-0.172173,0.072438
1980-01-06T00:04:40.043369632Z,-0.990002,-1.935712,9.859921,0.138484,-0.402936,0.102265
1980-01-06T00:04:40.063234372Z,-1.122881,-2.240973,9.630077,0.208792,-0.486692,0.116114
1980-01-06T00:04:40.083097445Z,-1.039083,-2.252944,9.859921,0.221974,-0.220643,-0.015979
1980-01-06T00:04:40.103020934Z,-0.906205,-2.309207,9.797672,0.164716,-0.179763,0.031958
1980-01-06T00:04:40.122845830Z,-0.824802,-2.183512,9.880272,0.157526,-0.051399,-0.012251
1980-01-06T00:04:40.142742861Z,-0.833182,-1.975216,9.885060,0.138085,-0.117312,-0.005859
1980-01-06T00:04:40.162578851Z,-0.956484,-1.848324,10.057443,0.148205,-0.153531,0.010120
1980-01-06T00:04:40.182451091Z,-0.714669,-1.850718,10.110115,0.184157,-0.220376,-0.017577
1980-01-06T00:04:40.202262705Z,-0.694318,-1.833959,9.961675,0.197207,-0.425573,-0.038882
1980-01-06T00:04:40.222191195Z,-1.009156,-1.889025,9.803658,0.190682,-0.490953,-0.033556
1980-01-06T00:04:40.242064736Z,-1.143231,-1.890222,9.602545,0.151267,-0.311057,0.020773
1980-01-06T00:04:40.281811872Z,-0.664391,-1.788469,9.746197,0.156061,0.093610,0.098537
1980-01-06T00:04:40.301524268Z,-0.586579,-1.684321,9.717466,0.132093,0.170442,0.090015
1980-01-06T00:04:40.321639372Z,-0.378284,-1.564611,9.861118,0.144876,-0.032091,0.065514
1980-01-06T00:04:40.341384320Z,-0.636858,-1.485602,9.846753,0.181627,-0.255930,0.069775
1980-01-06T00:04:40.361281143Z,-0.870292,-1.333570,9.798869,0.252601,-0.256063,0.105994
1980-01-06T00:04:40.381192393Z,-0.961272,-1.285686,9.702502,0.340085,-0.104928,0.177899
1980-01-06T00:04:40.400844320Z,-0.957681,-1.508347,9.426271,0.394946,0.077498,0.246609
1980-01-06T00:04:40.440746455Z,1.010353,-1.593341,12.055105,0.126367,-0.275237,0.216781
1980-01-06T00:04:40.460622236Z,0.262165,-1.806425,8.894758,0.025966,-0.920920,-0.026099
1980-01-06T00:04:40.480493643Z,-1.140837,-1.234211,9.987712,0.131826,-0.421578,0.030360
1980-01-06T00:04:40.500354840Z,0.213084,-1.401805,10.701183,0.133691,0.015846,0.107059
1980-01-06T00:04:40.520357757Z,-0.082600,-1.356315,9.719561,0.213852,-0.078164,0.058057
1980-01-06T00:04:40.540094580Z,-0.494403,-1.173159,9.532813,0.186421,0.050999,0.004794
1980-01-06T00:04:40.559981247Z,0.050278,-1.513135,9.413103,0.105195,-0.087218,-0.011185
1980-01-06T00:04:40.580007236Z,0.046687,-1.470040,9.376891,-0.050866,-0.462191,-0.003196
1980-01-06T00:04:40.599702601Z,-0.486023,-1.189918,9.702502,-0.003995,-0.573644,0.019175
1980-01-06T00:04:40.619560465Z,0.015562,-1.260547,9.611523,0.003728,-0.376038,0.014914
1980-01-06T00:04:40.639542028Z,0.019154,-1.356315,9.754577,0.021838,-0.372975,-0.003196
1980-01-06T00:04:40.659304059Z,-0.171185,-1.144428,10.616488,0.099336,-0.064182,-0.071373
1980-01-06T00:04:40.679326455Z,-0.017957,-1.237802,9.567828,0.105328,0.017177,-0.005326
1980-01-06T00:04:40.699049788Z,0.440533,-1.201889,9.970653,0.045407,-0.056059,-0.017044
1980-01-06T00:04:40.718900778Z,-0.347159,-0.922965,9.621099,0.069242,-0.048736,-0.043676
1980-01-06T00:04:40.738768174Z,-0.080206,-0.932542,9.372103,0.045806,-0.005859,0.040480
1980-01-06T00:04:40.758676611Z,0.175974,-1.198298,9.750386,0.056725,-0.012783,0.051133
1980-01-06T00:04:40.778553903Z,0.266953,-1.057040,9.941922,0.058190,-0.056193,-0.025566
1980-01-06T00:04:40.798394267Z,-0.003591,-1.053449,9.865308,0.047271,-0.026498,-0.009587
1980-01-06T00:04:40.818260413Z,-0.088585,-1.084573,9.491813,0.011585,-0.021971,0.019175
1980-01-06T00:04:40.838154997Z,0.335188,-1.254562,9.673772,-0.030360,-0.023303,0.020240
1980-01-06T00:04:40.877869788Z,0.427365,-1.343147,9.470564,-0.039148,-0.011585,0.035686
1980-01-06T00:04:40.897742965Z,0.211887,-1.170765,9.413103,0.020506,-0.004661,0.023968
1980-01-06T00:04:40.917600465Z,0.234632,-1.146823,9.769540,0.047937,-0.003862,-0.002131
1980-01-06T00:04:40.937453121Z,-0.098162,-1.046266,9.419987,0.068177,-0.007856,0.018109
1980-01-06T00:04:40.957338746Z,0.138864,-1.017536,9.587581,-0.004927,-0.016512,0.009587
1980-01-06T00:04:40.977182965Z,0.232238,-1.124078,9.793482,-0.005060,-0.031026,-0.018109
1980-01-06T00:04:40.997055882Z,0.137667,-0.990002,9.783905,0.020773,-0.019042,-0.038349
1980-01-06T00:04:41.036819059Z,-0.492008,-0.835576,9.391256,0.041412,0.015047,0.029827
1980-01-06T00:04:41.056695465Z,-0.305261,-0.954089,9.568427,0.063250,0.003728,-0.007457
1980-01-06T00:04:41.076512080Z,-0.390255,-0.986411,9.568427,0.072971,-0.007457,-0.012783
1980-01-06T00:04:41.096428017Z,0.179565,-1.059434,9.726444,0.051133,-0.011718,-0.005326
1980-01-06T00:04:41.116263121Z,0.166397,-1.040281,9.573215,0.098137,0.001598,-0.035154
1980-01-06T00:04:41.156108173Z,0.287304,-0.931344,9.793482,0.108657,-0.008655,-0.017044
1980-01-06T00:04:41.175877757Z,0.380678,-1.021127,9.692925,0.076965,-0.011585,-0.044741
1980-01-06T00:04:41.195772861Z,0.328006,-0.964863,9.716867,0.041945,-0.016778,-0.037284
1980-01-06T00:04:41.215667653Z,0.033519,-0.870292,9.731233,0.032224,-0.006791,-0.018109
1980-01-06T00:04:41.235549840Z,0.021548,-0.952892,9.676465,0.020240,0.001731,-0.018642
1980-01-06T00:04:41.255469892Z,-0.058658,-0.920571,9.686042,0.008123,-0.011585,-0.020773
1980-01-06T00:04:41.275219215Z,-0.028730,-0.901417,9.642946,0.028496,-0.011585,-0.023968
1980-01-06T00:04:41.295093538Z,-0.026336,-0.988805,9.590274,0.062717,-0.013982,-0.016512
1980-01-06T00:04:41.334810465Z,-0.032322,-0.853533,9.724051,0.126101,-0.005193,-0.026099
1980-01-06T00:04:41.354714632Z,-0.039504,-0.755371,9.690532,0.105328,-0.009587,-0.013316
1980-01-06T00:04:41.374564996Z,-0.001197,-0.792481,9.709685,0.096806,-0.005593,-0.014381
1980-01-06T00:04:41.394460257Z,0.000000,-0.770933,9.666590,0.110388,-0.009454,-0.013316
1980-01-06T00:04:41.414296142Z,0.008380,-0.679953,9.771935,0.092412,-0.009321,-0.007989
1980-01-06T00:04:41.434166871Z,0.001197,-0.843956,9.623494,0.088417,-0.014381,-0.010120
1980-01-06T00:04:41.454060517Z,0.019154,-0.884658,9.518148,0.185888,-0.006791,-0.020773
1980-01-06T00:04:41.473895621Z,-0.019154,-0.730232,9.695320,0.234624,-0.011185,-0.027164
1980-01-06T00:04:41.493786767Z,0.009577,-0.621295,9.695320,0.230363,-0.005726,-0.027164
1980-01-06T00:04:41.513737392Z,0.033519,-0.577003,9.752781,0.213585,-0.005459,-0.020773
1980-01-06T00:04:41.533520725Z,0.011971,-0.548272,9.680955,0.199604,-0.006125,-0.025034
1980-01-06T00:04:41.553379580Z,0.193930,-0.408211,9.652225,0.240217,-0.005326,-0.012251
1980-01-06T00:04:41.573257496Z,0.101754,-0.451307,9.642648,0.220909,-0.010786,-0.015446
1980-01-06T00:04:41.593120882Z,0.008380,-0.365116,9.819818,0.204531,-0.011452,-0.016512
1980-01-06T00:04:41.613029632Z,-0.023942,-0.356736,9.738416,0.173505,-0.010386,-0.016512
1980-01-06T00:04:41.652741767Z,0.349553,-0.056264,9.609129,0.173771,-0.004794,-0.012251
1980-01-06T00:04:41.672609267Z,0.225055,-0.079009,10.173263,0.064582,-0.028363,-0.001598
1980-01-06T00:04:41.692479840Z,0.179565,-0.331597,9.714772,0.006924,-0.009721,-0.019707
1980-01-06T00:04:41.712413277Z,0.086191,-0.365116,9.668385,0.059255,-0.013316,-0.014914
1980-01-06T00:04:41.732190882Z,0.029928,-0.229843,9.750386,0.094542,-0.015180,-0.013848
1980-01-06T00:04:41.752087965Z,0.027533,-0.240617,9.712079,0.041678,-0.010519,-0.018109
1980-01-06T00:04:41.791858746Z,0.038307,-0.160412,9.764751,0.011185,-0.009454,-0.017044
1980-01-06T00:04:41.811690152Z,-0.014365,-0.233435,9.738416,0.004394,-0.012916,-0.017577
1980-01-06T00:04:41.831547184Z,0.017957,-0.274136,9.709685,0.007590,-0.016778,-0.041013
1980-01-06T00:04:41.851417757Z,-0.010774,-0.390255,9.647436,0.030360,-0.007989,-0.059122
1980-01-06T00:04:41.871358329Z,0.031125,-0.175974,9.762358,0.041545,-0.006258,-0.065514
1980-01-06T00:04:41.891165204Z,0.044293,-0.186748,9.685743,0.032624,-0.007191,-0.058057
1980-01-06T00:04:41.911026715Z,-0.010774,-0.179565,9.709685,0.021572,-0.005459,-0.047404
1980-01-06T00:04:41.930901298Z,-0.159214,-0.301669,9.771935,0.027297,-0.006791,-0.020773
1980-01-06T00:04:41.970629788Z,0.059855,-0.144849,9.680955,0.000666,-0.002530,-0.012251
1980-01-06T00:04:41.990506350Z,0.140061,-0.087388,9.479841,0.003063,0.009854,-0.009055
1980-01-06T00:04:42.010330673Z,0.111330,0.069432,9.743204,0.044608,-0.009987,-0.013316
1980-01-06T00:04:42.030243486Z,0.034716,-0.222661,9.733627,-0.001731,-0.006125,-0.014381
1980-01-06T00:04:42.050108954Z,-0.007183,-0.181959,9.724051,0.000533,-0.008389,-0.014381
1980-01-06T00:04:42.070068173Z,0.028730,-0.226252,9.695619,0.007457,-0.007989,-0.014381
1980-01-06T00:04:42.089894892Z,0.005986,-0.235829,9.700407,-0.004927,-0.006924,-0.014381
1980-01-06T00:04:42.109711454Z,0.004788,-0.150835,9.721656,-0.001731,-0.008522,-0.013848
1980-01-06T00:04:42.129612652Z,0.000000,-0.181959,9.709685,0.000533,-0.007856,-0.014381
1980-01-06T00:04:42.149471975Z,0.038307,-0.198719,9.719262,-0.003862,-0.008522,-0.014381
1980-01-06T00:04:42.169412131Z,0.033519,-0.181959,9.709685,-0.002796,-0.008256,-0.014381
1980-01-06T00:04:42.189204215Z,0.033519,-0.168791,9.714474,-0.001065,-0.007191,-0.014381
1980-01-06T00:04:42.209180465Z,0.000000,-0.187945,9.724051,-0.001332,-0.008123,-0.014381
1980-01-06T00:04:42.228954111Z,0.001197,-0.167594,9.718364,-0.001731,-0.008256,-0.014381
1980-01-06T00:04:42.248792808Z,0.011971,-0.186748,9.723152,-0.001598,-0.008123,-0.014381
1980-01-06T00:04:42.268748746Z,0.009577,-0.190339,9.711481,-0.002929,-0.007723,-0.012783
1980-01-06T00:04:42.288560413Z,0.028730,-0.192733,9.697116,-0.001465,-0.007723,-0.013848
1980-01-06T00:04:42.308467236Z,-0.009577,-0.201113,9.677961,-0.000932,-0.009188,-0.013848
1980-01-06T00:04:42.328326090Z,0.015562,-0.220267,9.625289,-0.000133,-0.008389,-0.013848
1980-01-06T00:04:42.348179163Z,0.025139,-0.166397,9.725846,-0.000133,-0.007989,-0.013848
1980-01-06T00:04:42.368020829Z,0.014365,-0.167594,9.706693,-0.000799,-0.009587,-0.014914
1980-01-06T00:04:42.387986975Z,0.039504,-0.189142,9.732430,-0.002796,-0.007590,-0.013848
1980-01-06T00:04:42.407626090Z,0.017957,-0.175974,9.742006,-0.002397,-0.008123,-0.013848
1980-01-06T00:04:42.427627079Z,-0.007183,-0.171185,9.750386,-0.001198,-0.007057,-0.013848
