timestamp,accel_x,accel_y,accel_z,gyro_x,gyro_y,gyro_z
1980-01-06T01:09:37.809461166Z,-0.044293,-0.165200,9.746496,0.000000,0.000000,-0.000266
1980-01-06T01:09:37.829372260Z,-0.020351,-0.178368,9.727343,0.031026,0.185755,-0.771517
1980-01-06T01:09:37.849180489Z,-0.010774,-0.190339,9.719860,-0.003329,-0.008655,-0.007457
1980-01-06T01:09:37.869194187Z,0.014365,-0.196325,9.739014,-0.002264,-0.008788,-0.013848
1980-01-06T01:09:37.908696531Z,-0.023942,-0.162806,9.753678,-0.005326,-0.009188,-0.013848
1980-01-06T01:09:37.928619031Z,0.026336,-0.174777,9.729736,-0.005726,-0.007856,-0.013848
1980-01-06T01:09:37.948467468Z,0.007183,-0.210690,9.724948,-0.005459,-0.007723,-0.012783
1980-01-06T01:09:37.968330281Z,-0.015562,-0.229843,9.715371,-0.002663,-0.008922,-0.013848
1980-01-06T01:09:37.988351895Z,-0.021548,-0.191536,9.734525,-0.002929,-0.009321,-0.013848
1980-01-06T01:09:38.008213927Z,0.009577,-0.155623,9.744102,-0.003862,-0.009188,-0.013848
1980-01-06T01:09:38.028087052Z,-0.004788,-0.165200,9.748890,-0.005726,-0.009321,-0.013848
1980-01-06T01:09:38.047950906Z,-0.017957,-0.219069,9.724948,-0.007723,-0.008522,-0.013848
1980-01-06T01:09:38.067816635Z,-0.031125,-0.244209,9.710583,-0.004128,-0.009188,-0.013848
1980-01-06T01:09:38.087687260Z,-0.029928,-0.217872,9.715371,-0.001598,-0.008256,-0.013848
1980-01-06T01:09:38.107567833Z,-0.019154,-0.175974,9.729736,-0.003063,-0.009321,-0.013848
1980-01-06T01:09:38.127374604Z,0.003591,-0.181959,9.729736,-0.004261,-0.007723,-0.013848
1980-01-06T01:09:38.147318562Z,-0.015562,-0.226252,9.720160,-0.003595,-0.009587,-0.014914
1980-01-06T01:09:38.167191947Z,-0.020351,-0.245406,9.739313,-0.002796,-0.008922,-0.013848
1980-01-06T01:09:38.206806947Z,0.003591,-0.183156,9.729437,-0.000133,-0.008522,-0.014914
1980-01-06T01:09:38.226748926Z,-0.021548,-0.178368,9.739014,-0.001997,-0.009321,-0.013848
1980-01-06T01:09:38.246492156Z,-0.020351,-0.203507,9.748590,-0.002264,-0.008256,-0.013848
1980-01-06T01:09:38.266384708Z,0.007183,-0.204704,9.739014,-0.003063,-0.008922,-0.014914
1980-01-06T01:09:38.286261843Z,-0.004788,-0.202310,9.719860,-0.002796,-0.007590,-0.013848
1980-01-06T01:09:38.306090749Z,-0.040701,-0.183156,9.734225,-0.000000,-0.008123,-0.013848
1980-01-06T01:09:38.326192416Z,-0.039504,-0.199916,9.729437,-0.002264,-0.007723,-0.013848
1980-01-06T01:09:38.365897156Z,0.003591,-0.203507,9.715072,-0.003595,-0.009454,-0.014914
1980-01-06T01:09:38.385771843Z,-0.014365,-0.233435,9.705495,-0.000133,-0.007590,-0.014914
1980-01-06T01:09:38.405634656Z,-0.029928,-0.207098,9.715072,-0.000533,-0.009454,-0.014914
1980-01-06T01:09:38.425514343Z,-0.014365,-0.174777,9.739014,-0.000266,-0.008256,-0.014914
1980-01-06T01:09:38.445396114Z,0.027533,-0.187945,9.734225,-0.002530,-0.008788,-0.013848
1980-01-06T01:09:38.465240176Z,-0.007183,-0.192733,9.743802,-0.002131,-0.008389,-0.014914
1980-01-06T01:09:38.485084395Z,0.000000,-0.216675,9.729736,-0.002397,-0.008123,-0.014914
1980-01-06T01:09:38.504985333Z,-0.020351,-0.202310,9.715371,0.000666,-0.008256,-0.013848
1980-01-06T01:09:38.524842572Z,-0.010774,-0.171185,9.729736,-0.000533,-0.007723,-0.013848
1980-01-06T01:09:38.544724499Z,-0.025139,-0.196325,9.720160,-0.001731,-0.009321,-0.014914
1980-01-06T01:09:38.564630385Z,-0.013168,-0.228646,9.701006,-0.001997,-0.008655,-0.013848
1980-01-06T01:09:38.584480437Z,0.023942,-0.214281,9.716867,-0.000133,-0.007590,-0.014381
1980-01-06T01:09:38.604317103Z,-0.019154,-0.211887,9.731233,-0.001731,-0.008788,-0.014381
1980-01-06T01:09:38.624226166Z,-0.028730,-0.173580,9.731233,-0.000932,-0.008788,-0.014381
1980-01-06T01:09:38.644074030Z,-0.009577,-0.179565,9.745598,-0.001332,-0.007723,-0.014381
1980-01-06T01:09:38.663969551Z,-0.020351,-0.197522,9.721656,-0.003063,-0.008922,-0.014381
1980-01-06T01:09:38.683834291Z,0.007183,-0.203507,9.712079,-0.000000,-0.008256,-0.014381
1980-01-06T01:09:38.703720020Z,-0.015562,-0.193930,9.716867,-0.000666,-0.008389,-0.015446
1980-01-06T01:09:38.723561062Z,-0.015562,-0.192733,9.736021,-0.000799,-0.007590,-0.014381
1980-01-06T01:09:38.743295280Z,-0.029928,-0.198719,9.716867,-0.001332,-0.007723,-0.014381
1980-01-06T01:09:38.763136895Z,-0.019154,-0.199916,9.721656,-0.001997,-0.008788,-0.014381
1980-01-06T01:09:38.783007468Z,0.017957,-0.196325,9.716867,-0.003063,-0.009321,-0.014381
1980-01-06T01:09:38.803082468Z,-0.027533,-0.204704,9.739613,-0.000266,-0.007989,-0.014381
1980-01-06T01:09:38.822945749Z,-0.023942,-0.177171,9.725247,-0.001731,-0.008655,-0.014381
1980-01-06T01:09:38.842961582Z,0.004788,-0.021548,9.825804,-0.024767,-0.004794,-0.014381
1980-01-06T01:09:38.862676582Z,0.025139,-0.026336,9.763555,0.006392,-0.007057,-0.014381
1980-01-06T01:09:38.882552937Z,-0.070629,-0.235829,9.682152,-0.002796,-0.008788,-0.014381
1980-01-06T01:09:38.902430124Z,-0.013168,-0.209493,9.720459,0.002131,-0.006658,-0.015446
1980-01-06T01:09:38.922324135Z,-0.003591,-0.152032,9.716867,0.004927,-0.010253,-0.014381
1980-01-06T01:09:38.942145489Z,-0.008380,-0.196325,9.740809,0.004927,-0.009055,-0.013316
1980-01-06T01:09:38.962035749Z,-0.008380,-0.237026,9.721656,-0.005193,-0.007723,-0.014381
1980-01-06T01:09:38.981886739Z,-0.090980,-0.049081,9.762058,-0.007856,-0.012650,-0.007989
1980-01-06T01:09:39.001633926Z,0.047884,-0.401029,9.557354,-0.024901,-0.004661,-0.001065
1980-01-06T01:09:39.021482676Z,0.002394,-0.185551,9.753678,0.000533,-0.007457,-0.014914
1980-01-06T01:09:39.041366009Z,0.077812,-0.126893,9.748890,0.002663,-0.001598,-0.017044
1980-01-06T01:09:39.061282416Z,0.044293,0.138864,9.892542,-0.039814,0.004527,-0.014914
1980-01-06T01:09:39.081099864Z,-0.186748,-0.124498,9.595661,-0.076433,0.007590,-0.070307
1980-01-06T01:09:39.101098405Z,-0.096965,-0.221464,9.595362,-0.016778,-0.005326,-0.181095
1980-01-06T01:09:39.140856739Z,-0.189142,-0.320823,9.509171,0.073636,-0.027697,-0.008522
1980-01-06T01:09:39.160598405Z,-0.020351,-0.172383,9.772532,-0.001598,-0.006658,0.001065
1980-01-06T01:09:39.180463822Z,0.128090,-0.138864,9.695918,-0.025833,0.000133,0.024501
1980-01-06T01:09:39.200330072Z,-0.166397,-0.460884,9.667487,-0.037817,0.000000,0.002131
1980-01-06T01:09:39.220353718Z,-0.019154,-0.244209,9.705794,-0.068310,0.008655,-0.004261
1980-01-06T01:09:39.240080384Z,-0.080206,-0.318429,9.748890,-0.052065,0.005060,-0.006392
1980-01-06T01:09:39.260114655Z,-0.063446,-0.314838,9.729736,-0.000932,-0.009188,-0.013848
1980-01-06T01:09:39.279974395Z,-0.052672,-0.289698,9.701006,-0.021305,-0.007457,-0.018109
1980-01-06T01:09:39.299856686Z,0.027533,-0.277727,9.649830,0.016245,-0.013049,-0.017577
1980-01-06T01:09:39.319713041Z,-0.021548,-0.146046,9.783905,-0.022770,0.001465,-0.028229
1980-01-06T01:09:39.339438301Z,-0.199916,0.089783,9.822212,-0.038749,-0.000266,-0.174171
1980-01-06T01:09:39.359478145Z,-0.050278,-0.345962,9.850943,0.121573,-0.020639,-0.273240
1980-01-06T01:09:39.379344603Z,0.081403,-0.569820,9.612720,0.089748,-0.037151,-0.030893
1980-01-06T01:09:39.399195436Z,0.017957,-0.270545,9.667487,0.066978,-0.021572,-0.026632
1980-01-06T01:09:39.418918301Z,0.074220,-0.159214,9.713276,0.031026,-0.012517,-0.022371
1980-01-06T01:09:39.438801061Z,0.027533,-0.135272,9.746795,0.004661,0.000799,-0.012783
1980-01-06T01:09:39.458728093Z,0.032322,-0.208296,9.718064,-0.022104,0.006924,-0.005326
1980-01-06T01:09:39.478699395Z,-0.037110,-0.293290,9.715371,-0.013582,0.007057,0.002131
1980-01-06T01:09:39.498580072Z,-0.062249,-0.281319,9.734525,-0.011318,0.004128,0.004261
1980-01-06T01:09:39.518481374Z,-0.090980,-0.248997,9.696218,0.009055,-0.007989,-0.008522
1980-01-06T01:09:39.538271478Z,-0.046687,-0.254982,9.725247,0.017843,-0.013316,-0.015446
1980-01-06T01:09:39.558175332Z,-0.037110,-0.263362,9.701305,0.002796,-0.007590,-0.014381
1980-01-06T01:09:39.578027624Z,0.026336,-0.211887,9.719860,0.000666,-0.004927,-0.013848
1980-01-06T01:09:39.597920957Z,-0.023942,-0.214281,9.707291,-0.005459,-0.000266,-0.012251
1980-01-06T01:09:39.617792520Z,-0.019154,-0.250194,9.708488,0.004128,-0.001332,-0.004261
1980-01-06T01:09:39.637641738Z,-0.001197,-0.225055,9.731233,0.008256,-0.000399,0.003728
1980-01-06T01:09:39.657514082Z,-0.077812,-0.198719,9.740809,0.007057,-0.006125,0.005859
1980-01-06T01:09:39.677427572Z,-0.047884,-0.203507,9.724648,0.013183,-0.009055,-0.006392
1980-01-06T01:09:39.697243093Z,-0.040701,-0.203507,9.719860,0.006658,-0.011718,-0.014914
1980-01-06T01:09:39.717287103Z,-0.050278,-0.307655,9.681553,0.005859,-0.010786,-0.017044
1980-01-06T01:09:39.736863926Z,-0.046687,-0.250194,9.719860,0.023569,-0.013183,-0.019175
1980-01-06T01:09:39.756724707Z,-0.049081,-0.219069,9.715072,0.019441,-0.015579,-0.020240
1980-01-06T01:09:39.776591061Z,-0.035913,-0.231040,9.715072,0.031958,-0.015313,-0.023436
1980-01-06T01:09:39.796471738Z,-0.010774,-0.140061,9.743802,0.022637,-0.013049,-0.027697
1980-01-06T01:09:39.816351843Z,0.009577,-0.148441,9.739014,0.012916,-0.009854,-0.011718
1980-01-06T01:09:39.836269499Z,-0.025139,-0.179565,9.734225,0.008655,-0.009454,-0.009587
1980-01-06T01:09:39.856067832Z,-0.021548,-0.175974,9.734225,-0.002796,-0.008123,-0.005326
1980-01-06T01:09:39.875939290Z,-0.037110,-0.185551,9.743802,-0.012650,-0.008256,-0.003196
1980-01-06T01:09:39.895809811Z,-0.016759,-0.177171,9.725247,-0.022371,-0.006924,0.003196
1980-01-06T01:09:39.915696582Z,0.016759,-0.239420,9.730036,-0.027431,-0.006525,0.009587
1980-01-06T01:09:39.935661478Z,0.055067,-0.223858,9.734824,-0.023968,-0.004394,0.009587
1980-01-06T01:09:39.955408509Z,0.002394,-0.229843,9.701305,-0.019707,-0.005593,0.007457
1980-01-06T01:09:39.975281582Z,-0.065841,-0.169988,9.696517,-0.010786,-0.007191,-0.000000
1980-01-06T01:09:39.995194915Z,-0.106542,-0.276530,9.710882,0.003329,-0.008788,-0.007457
1980-01-06T01:09:40.015024655Z,0.069432,-0.310049,9.702502,0.032890,-0.014514,-0.010120
1980-01-06T01:09:40.054972363Z,-0.071826,-0.164003,9.712079,0.046605,-0.014514,-0.007989
1980-01-06T01:09:40.074790124Z,0.100556,-0.492008,9.755175,0.033023,-0.008655,-0.002663
1980-01-06T01:09:40.094686061Z,0.050278,-0.293290,9.491813,0.012117,-0.009721,0.010120
1980-01-06T01:09:40.114447103Z,0.308852,-0.462081,9.630676,-0.009987,-0.006791,0.009055
1980-01-06T01:09:40.134433717Z,0.274136,-0.591368,9.739313,-0.041812,-0.010919,-0.021305
1980-01-06T01:09:40.154292884Z,0.272939,-0.459687,9.720160,-0.049801,-0.005726,-0.092678
1980-01-06T01:09:40.174174394Z,0.389058,-0.375890,9.538200,-0.040613,0.000266,-0.133158
1980-01-06T01:09:40.194024186Z,0.377087,-0.015562,9.897330,-0.005726,-0.007191,-0.170442
1980-01-06T01:09:40.213911686Z,0.153229,-0.173580,9.617508,0.002929,-0.007989,-0.157659
1980-01-06T01:09:40.233770801Z,-0.037110,-0.233435,9.965864,0.027164,-0.015446,-0.160322
1980-01-06T01:09:40.253666374Z,0.141258,-0.547075,9.736021,-0.011984,-0.008256,-0.172040
1980-01-06T01:09:40.273505488Z,-0.202310,-0.362722,9.865308,0.014514,-0.011984,-0.107059
1980-01-06T01:09:40.293387311Z,0.198719,-0.505177,10.026617,0.027031,-0.012251,-0.127832
1980-01-06T01:09:40.313242624Z,-0.099359,-0.530316,9.786000,0.029162,-0.015446,-0.121973
1980-01-06T01:09:40.333122415Z,0.026336,-0.821211,9.886557,-0.005859,-0.016378,-0.104928
1980-01-06T01:09:40.353014290Z,0.198719,-0.651223,9.527427,-0.006658,-0.012384,-0.113451
1980-01-06T01:09:40.372746530Z,0.243011,-0.635661,9.393352,0.020906,-0.011185,-0.150735
1980-01-06T01:09:40.392593040Z,0.414197,-0.405817,9.738116,0.013183,-0.001864,-0.185888
1980-01-06T01:09:40.412527624Z,0.389058,-0.487220,9.982325,0.011984,-0.009454,-0.179497
1980-01-06T01:09:40.432341426Z,0.484826,-0.877475,9.412505,0.017976,-0.018642,-0.186954
1980-01-06T01:09:40.452244238Z,0.588974,-0.754174,9.795577,-0.003595,-0.004261,-0.268979
1980-01-06T01:09:40.472072884Z,0.405817,-0.527921,9.729736,-0.009987,0.004261,-0.316383
1980-01-06T01:09:40.491936426Z,0.434548,-0.566229,9.813833,0.022371,-0.005459,-0.349406
1980-01-06T01:09:40.511823874Z,0.403423,-0.527921,9.670180,0.028229,-0.024767,-0.392017
1980-01-06T01:09:40.531704446Z,0.375890,-0.629675,9.516952,-0.004394,-0.019441,-0.419714
1980-01-06T01:09:40.551560019Z,0.092177,-0.524330,9.708488,0.005060,-0.005060,-0.430366
1980-01-06T01:09:40.571448665Z,0.100556,-0.638055,9.660604,0.007324,-0.000799,-0.431432
1980-01-06T01:09:40.591313613Z,0.022745,-0.500388,9.660006,-0.027031,-0.001731,-0.417051
1980-01-06T01:09:40.611167415Z,-0.148441,-0.458490,9.670180,-0.102532,-0.006791,-0.392017
1980-01-06T01:09:40.631048717Z,-0.275333,-0.312443,9.631873,-0.025167,-0.011984,-0.378169
1980-01-06T01:09:40.670800436Z,-0.339977,-0.373495,9.809045,-0.057125,-0.006791,-0.347276
1980-01-06T01:09:40.690627884Z,-0.246603,-0.280122,9.852140,-0.079895,-0.001332,-0.287621
1980-01-06T01:09:40.710580019Z,-0.641646,-0.283713,10.011055,-0.160855,0.016645,-0.248739
1980-01-06T01:09:40.730520905Z,-0.289698,-0.252588,9.757270,-0.220909,0.003995,-0.238086
1980-01-06T01:09:40.750276373Z,-0.082600,-0.290895,9.680655,-0.227966,0.014381,-0.251935
1980-01-06T01:09:40.770343300Z,0.105345,-0.300472,9.698911,-0.219178,-0.002663,-0.259924
1980-01-06T01:09:40.790146582Z,0.198719,-0.331597,9.950901,-0.200003,-0.019707,-0.276969
1980-01-06T01:09:40.810036790Z,-0.043096,-0.276530,9.697116,-0.161254,0.037684,-0.284425
1980-01-06T01:09:40.829873925Z,-0.111330,-0.304064,9.610924,-0.086686,0.065647,-0.272707
1980-01-06T01:09:40.849604967Z,0.055067,-0.446519,9.687539,-0.107325,0.108524,-0.289752
1980-01-06T01:09:40.869621946Z,0.084994,-0.392649,9.807847,-0.105461,0.075101,-0.294545
1980-01-06T01:09:40.889532155Z,0.009577,-0.402226,9.783905,-0.098004,-0.009987,-0.287089
1980-01-06T01:09:40.909405123Z,-0.087388,-0.379481,9.980229,-0.110921,-0.032624,-0.275371
1980-01-06T01:09:40.929220071Z,-0.068235,-0.448913,9.999383,-0.055527,0.005459,-0.274305
1980-01-06T01:09:40.949123873Z,0.013168,-0.515950,9.927557,-0.039282,0.070041,-0.284958
1980-01-06T01:09:40.988911425Z,0.031125,-0.537498,10.013748,-0.026498,0.018376,-0.274305
1980-01-06T01:09:41.008774550Z,0.069432,-0.560243,9.841366,-0.005193,0.016245,-0.277501
1980-01-06T01:09:41.028625227Z,-0.002394,-0.654814,9.754577,-0.004261,0.025433,-0.268446
1980-01-06T01:09:41.048502050Z,-0.017957,-0.769736,9.831191,-0.031825,0.034222,-0.259924
1980-01-06T01:09:41.068345696Z,0.050278,-0.750582,9.974843,-0.034488,0.037950,-0.294013
1980-01-06T01:09:41.088249238Z,-0.040701,-0.723049,9.960478,-0.012117,-0.016112,-0.285491
1980-01-06T01:09:41.108100071Z,-0.063446,-0.694318,9.912594,-0.006658,-0.008256,-0.291882
1980-01-06T01:09:41.127962675Z,-0.089783,-0.713472,9.921572,0.036086,0.065381,-0.299872
1980-01-06T01:09:41.147848769Z,-0.107739,-0.682347,10.002975,0.054195,0.137952,-0.302002
1980-01-06T01:09:41.167704811Z,-0.079009,-0.599748,9.916783,0.058589,0.131693,-0.315851
1980-01-06T01:09:41.187595019Z,-0.131681,-0.588974,9.849746,0.065913,0.035021,-0.319046
1980-01-06T01:09:41.207483925Z,-0.160412,-0.544681,9.797073,0.035819,-0.027830,-0.324373
1980-01-06T01:09:41.227348404Z,-0.190339,-0.538695,9.763555,0.043676,-0.011318,-0.329699
1980-01-06T01:09:41.247217936Z,-0.154426,-0.541090,9.768343,0.071106,0.003063,-0.328634
1980-01-06T01:09:41.267078665Z,-0.203507,-0.468066,9.720459,0.065780,-0.016645,-0.316916
1980-01-06T01:09:41.286959915Z,-0.132878,-0.567426,9.720459,0.044342,-0.039015,-0.324373
1980-01-06T01:09:41.306830748Z,-0.108936,-0.703895,9.730036,0.041545,-0.060054,-0.343547
1980-01-06T01:09:41.326712988Z,-0.148441,-0.715866,9.763555,0.024235,-0.049135,-0.344613
1980-01-06T01:09:41.346566946Z,-0.090980,-0.603339,9.773131,0.035021,0.006125,-0.345678
1980-01-06T01:09:41.366349550Z,-0.002394,-0.659603,9.667787,0.081626,0.024901,-0.348874
1980-01-06T01:09:41.386149811Z,0.088585,-0.695516,9.615114,0.068443,-0.016378,-0.357396
1980-01-06T01:09:41.406040019Z,0.196325,-0.658405,9.591172,0.022104,-0.088284,-0.378701
1980-01-06T01:09:41.445754706Z,0.208296,-0.588974,9.621698,-0.015846,-0.081759,-0.419181
1980-01-06T01:09:41.465640748Z,0.196325,-0.492008,9.658210,0.016911,-0.008123,-0.433030
1980-01-06T01:09:41.485523040Z,0.140061,-0.550666,9.701305,0.054328,0.015313,-0.455400
1980-01-06T01:09:41.505377415Z,0.076614,-0.678756,9.682152,0.036752,-0.064848,-0.477771
1980-01-06T01:09:41.525301946Z,-0.051475,-0.580594,9.782708,0.003728,-0.145009,-0.495880
1980-01-06T01:09:41.545124134Z,-0.118513,-0.423774,9.950302,0.003728,-0.134356,-0.492684
1980-01-06T01:09:41.604750123Z,-0.112527,-0.243011,9.983821,0.041945,-0.061519,-0.495880
1980-01-06T01:09:41.624771529Z,-0.019154,-0.238223,9.753978,-0.008922,-0.146341,-0.487358
1980-01-06T01:09:41.644682050Z,-0.083797,-0.244209,9.792285,-0.011851,-0.169776,-0.471379
1980-01-06T01:09:41.664503665Z,-0.056264,-0.196325,9.662998,-0.011984,-0.100002,-0.462857
1980-01-06T01:09:41.684366425Z,0.039504,-0.202310,9.639056,-0.014115,-0.087884,-0.438356
1980-01-06T01:09:41.704242467Z,0.117316,-0.189142,9.615114,-0.028895,-0.106793,-0.435160
1980-01-06T01:09:41.724117206Z,0.068235,-0.063446,9.634268,-0.055127,-0.127832,-0.420246
1980-01-06T01:09:41.743846790Z,0.098162,-0.118513,9.648633,-0.056326,-0.125302,-0.414920
1980-01-06T01:09:41.763872988Z,0.031125,-0.199916,9.471462,-0.053263,-0.132758,-0.409594
1980-01-06T01:09:41.783699915Z,-0.020351,-0.047884,9.979033,-0.043010,-0.117312,-0.395745
1980-01-06T01:09:41.803628561Z,0.092177,-0.161609,9.519346,-0.124636,-0.104662,-0.356331
1980-01-06T01:09:41.823484915Z,0.106542,-0.195127,9.840169,-0.080561,-0.092412,-0.359526
1980-01-06T01:09:41.843220175Z,0.089783,-0.316035,9.543288,-0.137419,-0.135688,-0.317981
1980-01-06T01:09:41.863233717Z,0.166397,-0.475249,9.600749,-0.120774,-0.092145,-0.324373
1980-01-06T01:09:41.883102623Z,0.196325,-0.507571,9.725247,-0.075900,-0.091346,-0.317981
1980-01-06T01:09:41.903114290Z,0.221464,-0.691924,9.466674,-0.094276,-0.067378,-0.308394
1980-01-06T01:09:41.922866269Z,0.227449,-0.749385,9.667787,-0.106526,-0.068443,-0.280697
1980-01-06T01:09:41.942693717Z,0.459687,-0.744597,9.610326,-0.095474,-0.043010,-0.293480
1980-01-06T01:09:41.962591321Z,0.494403,-0.851139,9.572019,-0.091746,-0.075234,-0.294545
1980-01-06T01:09:41.982432571Z,0.512359,-0.920571,9.548077,-0.100002,-0.105328,-0.304133
1980-01-06T01:09:42.002318248Z,0.727837,-0.792481,9.955091,-0.030759,-0.068843,-0.369114
1980-01-06T01:09:42.022175748Z,0.743400,-0.861913,10.060435,0.125035,-0.065780,-0.427703
1980-01-06T01:09:42.042043717Z,0.658405,-0.697910,10.242394,0.152998,-0.054595,-0.460726
1980-01-06T01:09:42.061922519Z,1.042675,-0.635661,10.611102,0.472311,0.049268,-0.577905
1980-01-06T01:09:42.081777779Z,0.945710,-0.676362,10.500969,0.147140,-0.045141,-0.510794
1980-01-06T01:09:42.101660540Z,0.670376,-0.519542,9.639056,0.031825,-0.261655,-0.472444
1980-01-06T01:09:42.121544237Z,0.391452,-0.264559,9.888053,0.076832,-0.195076,-0.520381
1980-01-06T01:09:42.141435175Z,0.152032,-0.065841,10.122684,0.203199,-0.117712,-0.476705
1980-01-06T01:09:42.161299029Z,0.567426,-0.069432,10.170568,0.266715,0.017710,-0.427703
1980-01-06T01:09:42.181168248Z,0.061052,0.052672,9.643845,0.219577,0.052464,-0.344613
1980-01-06T01:09:42.200908717Z,0.130484,0.070629,9.827600,0.245543,0.054195,-0.331830
1980-01-06T01:09:42.220730279Z,0.389058,0.532710,11.158775,0.283227,-0.007324,-0.325438
1980-01-06T01:09:42.240615331Z,0.290895,0.343568,9.549872,0.122638,-0.141680,-0.259392
1980-01-06T01:09:42.260530696Z,0.424971,0.256180,10.129269,0.171507,-0.046472,-0.277501
1980-01-06T01:09:42.280356165Z,0.520739,0.231040,10.191518,0.187087,-0.022637,-0.258326
1980-01-06T01:09:42.300233612Z,0.481235,0.168791,10.138845,0.188951,-0.039947,-0.226369
1980-01-06T01:09:42.320181269Z,0.599748,0.016759,10.421362,0.145542,-0.064182,-0.225303
1980-01-06T01:09:42.339973039Z,0.796072,0.003591,10.220248,0.124103,-0.094010,-0.271110
1980-01-06T01:09:42.359837206Z,0.815226,0.070629,10.459669,0.108124,-0.136886,-0.275371
1980-01-06T01:09:42.379815539Z,0.836774,0.214281,10.378265,0.197740,-0.124902,-0.282827
1980-01-06T01:09:42.399594498Z,0.895431,0.198719,10.272921,0.266449,-0.118111,-0.277501
1980-01-06T01:09:42.419502310Z,0.901417,0.301669,10.344149,0.276303,-0.092012,-0.279632
1980-01-06T01:09:42.439328092Z,0.834379,0.396240,9.956287,0.271509,-0.055394,-0.302002
1980-01-06T01:09:42.459194029Z,0.858321,0.368707,9.907805,0.260457,-0.069775,-0.314785
1980-01-06T01:09:42.479084810Z,0.869095,0.408211,9.730635,0.225170,-0.062584,-0.328634
1980-01-06T01:09:42.498954967Z,0.962469,0.337582,9.639654,0.224504,-0.055394,-0.342482
1980-01-06T01:09:42.518860800Z,0.713472,0.519542,9.634866,0.206528,-0.030360,-0.348874
1980-01-06T01:09:42.538673873Z,0.598550,0.508768,9.519944,0.225969,0.005992,-0.385093
1980-01-06T01:09:42.558650123Z,0.529119,0.610521,9.413702,0.182826,0.103064,-0.438889
1980-01-06T01:09:42.578449654Z,0.362722,0.671574,9.358335,0.141680,0.101067,-0.484162
1980-01-06T01:09:42.598301477Z,0.174777,0.718261,9.468470,0.096806,0.061652,-0.509729
1980-01-06T01:09:42.618151737Z,0.080206,0.924162,9.932944,0.059522,-0.049668,-0.419181
1980-01-06T01:09:42.638021685Z,0.126893,0.827197,9.621698,0.057924,-0.015846,-0.335025
1980-01-06T01:09:42.657888404Z,0.254982,0.891840,9.492412,0.063649,0.084156,-0.261522
1980-01-06T01:09:42.677786894Z,0.158017,0.893037,9.717466,0.098936,0.131960,-0.181627
1980-01-06T01:09:42.697631269Z,0.401029,0.870292,9.932944,0.103863,0.168578,-0.128364
1980-01-06T01:09:42.717619081Z,0.494403,0.690727,9.932944,0.124902,0.110388,-0.125168
1980-01-06T01:09:42.737395071Z,0.749385,0.685939,9.894637,0.066579,0.018908,-0.147539
1980-01-06T01:09:42.757256216Z,0.708684,0.805649,10.143634,0.040613,-0.090681,-0.141147
1980-01-06T01:09:42.777135279Z,0.700304,0.760159,10.167576,0.090015,-0.048736,-0.136886
1980-01-06T01:09:42.797013143Z,0.679953,0.758962,10.123882,0.153398,0.032757,-0.117712
1980-01-06T01:09:42.816861060Z,0.723049,0.836774,10.061633,0.228499,0.099602,-0.075101
1980-01-06T01:09:42.836781685Z,0.927753,0.816423,10.023325,0.267514,0.116247,-0.077232
1980-01-06T01:09:42.856615435Z,0.757765,0.788889,9.874885,0.277901,0.019441,-0.103863
1980-01-06T01:09:42.876473821Z,0.721852,0.843956,9.879673,0.247407,-0.088017,-0.140082
1980-01-06T01:09:42.896369914Z,0.581791,0.987608,9.850943,0.233160,-0.119043,-0.146474
1980-01-06T01:09:42.916237414Z,0.445322,1.017536,9.673772,0.270577,-0.054062,-0.118777
1980-01-06T01:09:42.936088300Z,0.306458,1.088165,9.640253,0.318913,0.062185,-0.079362
1980-01-06T01:09:42.975848404Z,0.351948,1.183933,9.313146,0.307329,0.139816,-0.012783
1980-01-06T01:09:42.995704133Z,0.416591,1.362301,9.250896,0.240483,0.107592,-0.012783
1980-01-06T01:09:43.015610070Z,0.433351,1.471237,9.390059,0.195742,0.043276,-0.025034
1980-01-06T01:09:43.035451945Z,0.338780,1.569399,9.246407,0.189084,-0.053796,-0.039947
1980-01-06T01:09:43.055326112Z,0.384269,1.586159,9.099164,0.145808,-0.082025,-0.050600
1980-01-06T01:09:43.075207883Z,0.331597,1.814805,8.974665,0.121973,-0.079229,-0.058057
1980-01-06T01:09:43.095072258Z,0.423774,1.911770,9.065644,0.102265,-0.097205,-0.032491
1980-01-06T01:09:43.115025383Z,0.538695,1.731008,9.132683,0.085754,-0.062717,-0.041013
1980-01-06T01:09:43.154670227Z,0.524330,1.532289,9.549273,0.052464,-0.114915,-0.074036
1980-01-06T01:09:43.174551945Z,0.486023,1.667562,9.520543,0.075234,-0.108657,-0.072971
1980-01-06T01:09:43.194425227Z,0.339977,1.628057,9.602545,0.102265,-0.071506,-0.044208
1980-01-06T01:09:43.214289550Z,0.298078,1.756147,9.597756,0.116913,0.034621,0.003728
1980-01-06T01:09:43.234144081Z,0.302867,1.788469,9.521142,0.137419,0.158857,0.058057
1980-01-06T01:09:43.254048404Z,0.515950,1.776498,9.616910,0.106793,0.259791,0.082558
1980-01-06T01:09:43.294126268Z,0.438139,1.666364,9.712079,0.116380,0.134756,0.047404
1980-01-06T01:09:43.313776164Z,0.429759,1.671153,9.783905,0.092678,0.031558,0.000533
1980-01-06T01:09:43.333656737Z,0.401029,1.515530,9.884461,0.061253,-0.032890,-0.002663
1980-01-06T01:09:43.353556268Z,0.274136,1.578976,9.774328,0.086420,0.046073,0.012251
1980-01-06T01:09:43.373414237Z,0.222661,1.584962,9.841366,0.107192,0.058723,0.045274
1980-01-06T01:09:43.393285227Z,0.207098,1.622072,9.859023,0.140215,0.094010,0.068177
1980-01-06T01:09:43.413125695Z,0.215478,1.581370,9.682750,0.176967,0.089748,0.078297
1980-01-06T01:09:43.452897935Z,0.214281,1.616086,9.808446,0.138751,0.044342,0.097472
1980-01-06T01:09:43.472769549Z,0.217872,1.731008,9.602545,0.139683,0.046206,0.091080
1980-01-06T01:09:43.492610018Z,0.222661,1.914164,9.688736,0.143944,-0.013982,0.090015
1980-01-06T01:09:43.512460591Z,0.248997,1.890222,9.449316,0.166980,-0.054328,0.077232
1980-01-06T01:09:43.532363143Z,0.228646,1.939303,9.281721,0.161920,-0.056992,0.064448
1980-01-06T01:09:43.552225174Z,0.274136,1.940500,9.334394,0.104662,-0.062451,0.083623
1980-01-06T01:09:43.572151633Z,0.233435,1.993173,9.315240,0.079362,-0.034355,0.105994
1980-01-06T01:09:43.591946320Z,0.312443,1.940500,9.396643,0.088151,-0.000533,0.111320
1980-01-06T01:09:43.611746008Z,0.415394,1.892616,9.262568,0.083889,-0.026099,0.118777
1980-01-06T01:09:43.631594185Z,0.375890,1.922544,9.138069,0.092944,-0.041279,0.105994
1980-01-06T01:09:43.651616633Z,0.350751,2.018312,9.080608,0.096406,-0.071106,0.113451
1980-01-06T01:09:43.671491685Z,0.457293,2.076970,8.994417,0.097338,-0.031825,0.102798
1980-01-06T01:09:43.691369601Z,0.541090,2.166753,9.042301,0.116114,-0.054595,0.116646
1980-01-06T01:09:43.711206112Z,0.501585,2.139219,8.927380,0.128497,-0.032624,0.095341
1980-01-06T01:09:43.731069185Z,0.561440,2.294842,8.898649,0.079362,-0.019441,0.108124
1980-01-06T01:09:43.750951164Z,0.626084,2.366668,9.121609,0.032624,0.017444,0.122505
1980-01-06T01:09:43.770822883Z,0.556652,2.322376,9.217378,0.031558,0.037284,0.128897
1980-01-06T01:09:43.790675956Z,0.434548,2.254141,9.289204,0.058989,0.075101,0.128897
1980-01-06T01:09:43.810609289Z,0.389058,2.178724,9.452009,0.063383,0.064715,0.131027
1980-01-06T01:09:43.830424133Z,0.326809,2.160767,9.504682,0.061119,0.051266,0.129962
1980-01-06T01:09:43.850335174Z,0.356736,2.108095,9.562142,0.067911,0.016911,0.131027
1980-01-06T01:09:43.870189653Z,0.274136,2.158373,9.547777,0.085088,0.017843,0.140615
1980-01-06T01:09:43.890025747Z,0.269348,2.201468,9.581296,0.084289,-0.012650,0.157659
1980-01-06T01:09:43.909914758Z,0.256180,2.160767,9.452009,0.077232,-0.025300,0.155528
1980-01-06T01:09:43.929788612Z,0.336385,2.061408,9.672276,0.081759,-0.021971,0.168312
1980-01-06T01:09:43.949685539Z,0.396240,2.039860,9.540296,0.112252,0.003862,0.165648
1980-01-06T01:09:43.969509289Z,0.457293,2.212242,9.578603,0.117578,0.035819,0.175236
1980-01-06T01:09:43.989447883Z,0.408211,2.306813,9.530719,0.157260,0.026765,0.197606
1980-01-06T01:09:44.009281164Z,0.405817,2.233790,9.377489,0.167912,0.030759,0.197606
1980-01-06T01:09:44.029173976Z,0.538695,2.373851,9.315240,0.131027,0.031958,0.177366
1980-01-06T01:09:44.049073351Z,0.633266,2.407370,9.439739,0.117179,-0.003462,0.160322
1980-01-06T01:09:44.068897258Z,0.636858,2.451663,9.444528,0.104795,-0.048736,0.141147
1980-01-06T01:09:44.088755070Z,0.578200,2.551022,9.444528,0.135821,-0.079362,0.133691
1980-01-06T01:09:44.108608039Z,0.605733,2.523489,9.387066,0.131027,-0.089615,0.124103
1980-01-06T01:09:44.128521060Z,0.548272,2.637213,9.396643,0.127166,-0.075767,0.119842
1980-01-06T01:09:44.148417153Z,0.380678,2.483984,8.544308,0.065913,-0.037950,0.160322
1980-01-06T01:09:44.168310487Z,0.569820,2.480393,8.978855,0.130228,0.003595,0.151800
1980-01-06T01:09:44.188113768Z,0.518345,2.644396,9.174282,0.103730,-0.013715,0.166181
1980-01-06T01:09:44.207991789Z,0.433351,2.571373,9.012374,0.104795,-0.055793,0.182693
1980-01-06T01:09:44.227897362Z,0.478840,2.612074,8.907029,0.091213,-0.084289,0.199737
1980-01-06T01:09:44.247768195Z,0.486023,2.680309,8.983644,0.062584,-0.052331,0.202933
1980-01-06T01:09:44.267641893Z,0.600945,2.778471,9.750985,-0.006791,-0.066845,0.227434
1980-01-06T01:09:44.287639080Z,0.468066,2.503138,8.994417,0.065247,-0.061652,0.231695
1980-01-06T01:09:44.307351737Z,0.518345,2.529474,8.946533,0.012251,-0.058856,0.244478
1980-01-06T01:09:44.327263247Z,0.551863,2.625242,9.032724,-0.009055,-0.104396,0.254065
1980-01-06T01:09:44.347110435Z,0.616507,2.731784,8.965687,-0.009854,-0.126234,0.241282
1980-01-06T01:09:44.366980487Z,0.696713,2.479196,9.209895,-0.028229,-0.196674,0.249804
1980-01-06T01:09:44.386845799Z,0.794875,2.543839,9.329605,0.013715,-0.152865,0.257261
1980-01-06T01:09:44.406730747Z,0.823605,2.665944,9.242816,0.079628,-0.108923,0.271110
1980-01-06T01:09:44.426572518Z,0.803255,2.728193,9.003395,0.132093,-0.062584,0.281762
1980-01-06T01:09:44.446461007Z,0.938527,2.728193,9.027936,0.119176,-0.022637,0.304133
1980-01-06T01:09:44.466167882Z,1.024718,2.796427,9.047090,0.093876,0.007324,0.306263
1980-01-06T01:09:44.486239080Z,1.097741,2.756923,9.071032,0.066579,-0.019441,0.309459
1980-01-06T01:09:44.506060382Z,1.088165,2.718616,9.152434,0.038083,-0.055793,0.289219
1980-01-06T01:09:44.525963039Z,1.023521,2.644396,9.066243,0.002530,-0.107192,0.270044
1980-01-06T01:09:44.545820851Z,1.065420,2.722207,9.171588,-0.016112,-0.112385,0.257261
1980-01-06T01:09:44.565719497Z,1.078588,2.606089,9.147646,0.005593,-0.093610,0.266849
1980-01-06T01:09:44.585569132Z,1.159991,2.650381,9.116820,0.022637,-0.015713,0.294013
1980-01-06T01:09:44.605435122Z,1.171962,2.614468,8.987534,0.043409,0.012117,0.296143
1980-01-06T01:09:44.625312570Z,1.132457,2.545036,8.848670,0.018642,0.015846,0.298274
1980-01-06T01:09:44.645171268Z,1.227028,2.584541,8.945934,-0.003995,0.053529,0.313720
1980-01-06T01:09:44.665048143Z,1.337162,2.485181,8.974665,-0.001198,0.065913,0.314785
1980-01-06T01:09:44.684922153Z,1.449689,2.540248,9.032125,-0.008655,0.054994,0.313720
1980-01-06T01:09:44.704782622Z,1.448492,2.600103,9.065644,0.011318,0.045274,0.282827
1980-01-06T01:09:44.724649445Z,1.416170,2.470816,9.056067,-0.001065,-0.017044,0.259392
1980-01-06T01:09:44.744499080Z,1.303643,2.444480,9.041702,-0.016512,-0.019707,0.245543
1980-01-06T01:09:44.764249028Z,1.339556,2.462436,9.137471,-0.023968,0.030893,0.254065
1980-01-06T01:09:44.784117153Z,1.367089,2.501941,9.041702,-0.017710,0.019707,0.276436
1980-01-06T01:09:44.804001424Z,1.335965,2.522291,8.960299,-0.007191,0.041279,0.268979
1980-01-06T01:09:44.823890174Z,1.285686,2.694674,8.965088,-0.007324,0.005459,0.284958
1980-01-06T01:09:44.843729705Z,1.373075,2.693477,8.605958,0.021705,-0.000133,0.264718
1980-01-06T01:09:44.863600747Z,1.424550,2.402581,8.716091,-0.053263,-0.024102,0.274305
1980-01-06T01:09:44.883485799Z,1.327585,2.474407,8.912416,-0.062052,0.030227,0.305198
1980-01-06T01:09:44.903310122Z,1.322796,2.316390,9.242816,-0.079762,0.122772,0.344613
1980-01-06T01:09:44.923237153Z,1.442507,2.039860,9.214086,-0.145808,0.146607,0.346743
1980-01-06T01:09:44.943067934Z,1.449689,2.109292,9.396045,-0.073503,0.053529,0.305198
1980-01-06T01:09:44.982815330Z,1.474828,2.173935,9.329007,-0.052065,-0.014381,0.261522
1980-01-06T01:09:45.002697570Z,1.411382,2.248155,9.568427,-0.025966,-0.016378,0.253000
1980-01-06T01:09:45.022550538Z,1.375469,2.226608,9.257181,-0.029028,-0.010253,0.281762
1980-01-06T01:09:45.042421111Z,1.383849,2.184709,9.568427,-0.027564,0.087085,0.326503
1980-01-06T01:09:45.062288611Z,1.466449,2.257732,9.425373,0.023569,0.162719,0.351004
1980-01-06T01:09:45.082211476Z,1.509544,2.324770,9.267356,0.032491,0.132492,0.327569
1980-01-06T01:09:45.102030382Z,1.507150,2.278083,9.267356,0.018642,0.078963,0.287089
1980-01-06T01:09:45.141793351Z,1.388637,2.367866,9.027337,0.042477,0.069642,0.265783
1980-01-06T01:09:45.161807726Z,1.388637,2.401384,8.974665,0.032624,0.128897,0.291350
1980-01-06T01:09:45.181660486Z,1.414973,2.278083,9.156625,-0.000799,0.107725,0.292415
1980-01-06T01:09:45.201580226Z,1.507150,2.300828,9.204509,-0.042477,0.101600,0.274305
1980-01-06T01:09:45.221253715Z,1.503559,2.337938,9.223662,-0.052464,0.051133,0.245543
1980-01-06T01:09:45.241305382Z,1.429338,2.219425,9.314642,-0.055394,-0.011585,0.228499
1980-01-06T01:09:45.261156372Z,1.306037,2.252944,9.142260,-0.020639,0.057524,0.242347
1980-01-06T01:09:45.281005538Z,1.338359,2.184709,9.156625,-0.020773,0.082558,0.261522
1980-01-06T01:09:45.300892726Z,1.480814,2.057816,9.324219,-0.052464,0.082425,0.239152
1980-01-06T01:09:45.320798038Z,1.389834,1.924938,9.396045,-0.076300,0.028363,0.239152
1980-01-06T01:09:45.340647205Z,1.374272,1.934515,9.396045,-0.077897,0.057657,0.244478
1980-01-06T01:09:45.360356580Z,1.352724,2.091335,9.459491,-0.063383,0.089482,0.268446
1980-01-06T01:09:45.380265799Z,1.461660,2.017115,9.349358,-0.042344,0.089216,0.286556
1980-01-06T01:09:45.400130538Z,1.443704,1.874660,9.220071,-0.033689,0.077232,0.271642
1980-01-06T01:09:45.459730278Z,1.420959,1.868674,9.378687,-0.088284,-0.010919,0.248739
1980-01-06T01:09:45.479594132Z,1.476025,1.900996,9.345168,-0.085621,0.007590,0.239152
1980-01-06T01:09:45.499571111Z,1.418565,2.032677,9.340380,-0.086020,-0.011585,0.221042
1980-01-06T01:09:45.519509913Z,1.364695,1.934515,9.302073,-0.071373,-0.014115,0.222107
1980-01-06T01:09:45.539331059Z,1.419762,1.802834,9.195530,-0.085621,0.028629,0.207194
1980-01-06T01:09:45.559227101Z,1.340753,1.781286,9.353547,-0.134090,0.000932,0.200802
1980-01-06T01:09:45.579127622Z,1.285686,2.024297,9.415796,-0.143944,-0.006392,0.179497
1980-01-06T01:09:45.598952674Z,1.006762,1.820790,9.387066,-0.135288,-0.065381,0.225303
1980-01-06T01:09:45.618837726Z,1.049857,1.709460,9.449316,-0.131161,0.057791,0.300937
1980-01-06T01:09:45.638733507Z,1.272518,1.977611,9.469666,-0.065381,0.189351,0.361657
1980-01-06T01:09:45.658594497Z,1.400608,2.042254,9.445724,0.012117,0.230630,0.362722
1980-01-06T01:09:45.678460799Z,1.468843,1.804031,8.899846,-0.016645,0.206927,0.325438
1980-01-06T01:09:45.698355642Z,1.490391,1.960851,9.110536,-0.115581,0.142878,0.289219
1980-01-06T01:09:45.718222361Z,1.429338,1.868674,9.239823,-0.152998,0.049135,0.279632
1980-01-06T01:09:45.757931997Z,1.199495,1.686715,9.110536,-0.140215,0.072837,0.270044
1980-01-06T01:09:45.777825017Z,1.222240,1.605312,9.330803,-0.141547,0.078164,0.293480
1980-01-06T01:09:45.797692778Z,1.227028,1.545457,9.203910,-0.109589,0.120242,0.310524
1980-01-06T01:09:45.817577257Z,1.273715,1.617283,9.122507,-0.121973,0.072172,0.305198
1980-01-06T01:09:45.837432465Z,1.338359,1.619677,9.117719,-0.178831,0.007191,0.327569
1980-01-06T01:09:45.857290746Z,1.465251,1.371878,9.352350,-0.191614,0.005859,0.311590
1980-01-06T01:09:45.877180330Z,1.479617,1.446098,9.405023,-0.210123,-0.032224,0.310524
1980-01-06T01:09:45.897031267Z,1.602918,1.255759,9.247005,-0.178698,-0.005060,0.298806
1980-01-06T01:09:45.916932153Z,1.756147,1.343147,9.745000,-0.119576,-0.003995,0.278566
1980-01-06T01:09:45.936779757Z,1.497573,1.114501,9.163208,-0.133824,0.004794,0.289219
1980-01-06T01:09:45.956656996Z,1.394622,1.042675,9.345168,-0.134490,0.080827,0.304133
1980-01-06T01:09:45.976518299Z,1.449689,1.125275,9.238626,-0.134756,0.065780,0.304133
1980-01-06T01:09:45.996393299Z,1.410185,1.061828,9.066243,-0.137552,0.048869,0.287089
1980-01-06T01:09:46.016304496Z,1.452083,1.110910,9.396643,-0.178831,0.067245,0.291350
1980-01-06T01:09:46.036149653Z,1.301249,1.103727,9.209895,-0.148737,0.059788,0.281762
1980-01-06T01:09:46.056003611Z,1.152808,0.920571,9.051878,-0.196807,-0.003728,0.303067
1980-01-06T01:09:46.075907361Z,1.224634,0.966060,9.339182,-0.211987,0.051665,0.338221
1980-01-06T01:09:46.095753351Z,1.377863,0.897826,9.272144,-0.204930,0.074036,0.364853
1980-01-06T01:09:46.115670746Z,1.578976,0.827197,9.181165,-0.215316,0.065647,0.337156
1980-01-06T01:09:46.135501267Z,1.570596,0.731429,9.463681,-0.248872,0.028895,0.323307
1980-01-06T01:09:46.155375746Z,1.543063,0.768539,9.530719,-0.225969,0.105195,0.343547
1980-01-06T01:09:46.175252101Z,1.577779,0.889446,9.320028,-0.198538,0.146207,0.340352
1980-01-06T01:09:46.195112569Z,1.486799,0.581791,9.438541,-0.227434,0.112918,0.313720
1980-01-06T01:09:46.214980069Z,1.431733,0.571017,9.649231,-0.228100,0.129030,0.295611
1980-01-06T01:09:46.234855590Z,1.359907,0.436942,9.385869,-0.234491,0.103331,0.278566
1980-01-06T01:09:46.254689548Z,1.262941,0.383072,9.658808,-0.180962,0.070574,0.275371
1980-01-06T01:09:46.274602882Z,1.197101,0.514753,9.644443,-0.235556,0.146207,0.323307
1980-01-06T01:09:46.294476163Z,1.435324,0.338780,9.711481,-0.143811,0.149403,0.275371
1980-01-06T01:09:46.314347569Z,1.339556,0.146046,9.639654,-0.207726,0.039681,0.278566
1980-01-06T01:09:46.334211892Z,1.165976,0.281319,9.759365,-0.199071,0.086153,0.271110
1980-01-06T01:09:46.354102569Z,1.057040,0.203507,9.709086,-0.180828,0.107858,0.281762
1980-01-06T01:09:46.373967205Z,1.057040,0.254982,9.522339,-0.171241,0.121706,0.279632
1980-01-06T01:09:46.393836996Z,1.133654,0.050278,9.579800,-0.174437,0.147273,0.298806
1980-01-06T01:09:46.413687986Z,1.146823,0.179565,9.579800,-0.161121,0.216382,0.316916
1980-01-06T01:09:46.433571892Z,1.167173,0.319626,9.560646,-0.142745,0.253932,0.316916
1980-01-06T01:09:46.453318663Z,1.071405,0.155623,9.452907,-0.167513,0.173904,0.275371
1980-01-06T01:09:46.473189132Z,0.988805,-0.056264,9.682750,-0.247141,0.075367,0.254065
1980-01-06T01:09:46.493021632Z,1.029507,0.011971,9.888652,-0.228632,0.109056,0.273240
1980-01-06T01:09:46.512906371Z,1.067814,-0.162806,9.697116,-0.169643,0.146474,0.262587
1980-01-06T01:09:46.532764288Z,0.966060,-0.110133,9.674371,-0.164450,0.115315,0.240217
1980-01-06T01:09:46.552671007Z,0.827197,-0.101754,9.473258,-0.141680,0.126766,0.225303
1980-01-06T01:09:46.572514444Z,0.733823,-0.234632,9.540296,-0.191614,0.123304,0.254065
1980-01-06T01:09:46.592406371Z,0.766145,-0.193930,9.703101,-0.215183,0.141147,0.261522
1980-01-06T01:09:46.612248611Z,0.798466,-0.383072,9.683948,-0.216914,0.120108,0.273240
1980-01-06T01:09:46.632312413Z,0.847547,-0.343568,9.746197,-0.198538,0.157659,0.276436
1980-01-06T01:09:46.652198715Z,0.969652,-0.324414,9.770139,-0.173105,0.183092,0.266849
1980-01-06T01:09:46.672060694Z,0.962469,-0.294487,9.650429,-0.134756,0.157925,0.237021
1980-01-06T01:09:46.691907465Z,0.812831,-0.302867,9.541492,-0.123304,0.143811,0.203998
1980-01-06T01:09:46.711820642Z,0.633266,-0.313640,9.450513,-0.118644,0.110521,0.188019
1980-01-06T01:09:46.731652048Z,0.453701,-0.446519,9.440936,-0.181095,0.110255,0.194411
1980-01-06T01:09:46.751383454Z,0.408211,-0.561440,9.598953,-0.210123,0.170442,0.247674
1980-01-06T01:09:46.771408507Z,0.560243,-0.492008,9.531916,-0.175369,0.253133,0.262587
1980-01-06T01:09:46.791255121Z,0.603339,-0.477643,9.618107,-0.129030,0.230230,0.232760
1980-01-06T01:09:46.811109079Z,0.454898,-0.694318,9.484032,-0.113850,0.121973,0.183758
1980-01-06T01:09:46.850844444Z,0.164003,-0.551863,9.507974,-0.205196,0.020639,0.185888
1980-01-06T01:09:46.870734548Z,0.227449,-0.804452,9.603742,-0.199870,0.009721,0.209324
1980-01-06T01:09:46.890608402Z,0.357933,-0.779313,9.827600,-0.159257,0.007057,0.202933
1980-01-06T01:09:46.910543663Z,0.579397,-0.841562,9.779716,-0.140348,0.002929,0.208259
1980-01-06T01:09:46.930390277Z,0.608127,-0.741005,9.631275,-0.112652,0.090414,0.213585
1980-01-06T01:09:46.950220434Z,0.590171,-0.678756,9.712678,-0.114782,0.153664,0.227434
1980-01-06T01:09:46.970129600Z,0.579397,-0.867898,9.612122,-0.118244,0.159656,0.229564
1980-01-06T01:09:46.989988975Z,0.475249,-0.986411,9.583391,-0.124769,0.195210,0.209324
1980-01-06T01:09:47.009851527Z,0.310049,-0.931344,9.683948,-0.122905,0.236355,0.191215
1980-01-06T01:09:47.029714809Z,0.197522,-1.118092,9.475951,-0.130095,0.231429,0.192813
1980-01-06T01:09:47.049560069Z,0.203507,-1.229423,9.543886,-0.180429,0.251003,0.191215
1980-01-06T01:09:47.069301684Z,0.220267,-1.186327,9.888652,-0.210123,0.223306,0.202933
1980-01-06T01:09:47.089159965Z,0.147243,-1.149217,9.764153,-0.142080,0.253533,0.188019
1980-01-06T01:09:47.109028715Z,0.117316,-1.180341,9.409811,-0.047537,0.251802,0.160322
1980-01-06T01:09:47.129112986Z,0.044293,-1.128866,9.305663,-0.057524,0.199604,0.136886
1980-01-06T01:09:47.148932829Z,0.003591,-1.138443,9.621698,-0.143811,0.130628,0.142213
1980-01-06T01:09:47.168833038Z,-0.065841,-1.148020,9.664794,-0.156727,0.175768,0.137952
1980-01-06T01:09:47.188702569Z,-0.135272,-1.009156,9.545084,-0.117312,0.185755,0.137952
1980-01-06T01:09:47.208564236Z,-0.211887,-1.241394,9.478046,-0.134490,0.149403,0.141147
1980-01-06T01:09:47.228487256Z,-0.239420,-1.407791,9.736620,-0.183092,0.135688,0.167779
1980-01-06T01:09:47.248311788Z,-0.307655,-1.207875,9.594165,-0.134623,0.232893,0.180562
1980-01-06T01:09:47.268006631Z,-0.287304,-1.210269,9.469666,-0.105594,0.265517,0.172040
1980-01-06T01:09:47.288016944Z,-0.260968,-1.422156,9.484032,-0.168045,0.222773,0.148604
1980-01-06T01:09:47.307748246Z,-0.308852,-1.279701,9.603742,-0.205862,0.223705,0.127299
1980-01-06T01:09:47.327665329Z,-0.480037,-1.215057,9.480740,-0.172972,0.208259,0.106526
1980-01-06T01:09:47.347598298Z,-0.524330,-1.398214,9.461586,-0.198006,0.187886,0.117179
1980-01-06T01:09:47.367560225Z,-0.508768,-1.407791,9.566931,-0.233160,0.231029,0.122505
1980-01-06T01:09:47.387418819Z,-0.539892,-1.493982,9.716269,-0.210789,0.258460,0.115581
1980-01-06T01:09:47.407291579Z,-0.603339,-1.589750,9.711481,-0.183891,0.270710,0.094276
1980-01-06T01:09:47.466895381Z,-0.745794,-1.437718,9.754577,-0.188951,0.113451,0.027164
1980-01-06T01:09:47.486774808Z,-0.796072,-1.594538,9.596559,-0.215716,0.097472,0.021838
1980-01-06T01:09:47.506747933Z,-0.854730,-1.692701,9.749788,-0.254199,0.115714,0.028229
1980-01-06T01:09:47.526459392Z,-0.930147,-1.596933,9.764153,-0.230363,0.144476,0.014381
1980-01-06T01:09:47.546405694Z,-0.906205,-1.780089,9.759365,-0.202800,0.080427,0.002663
1980-01-06T01:09:47.566281787Z,-0.733823,-2.087744,9.924564,-0.247274,0.040347,0.011185
1980-01-06T01:09:47.586135277Z,-1.121683,-1.887828,10.168773,-0.221974,0.066179,0.023968
1980-01-06T01:09:47.625875642Z,-1.144428,-1.948880,9.844658,-0.119975,0.229964,0.082025
1980-01-06T01:09:47.645774808Z,-1.066617,-2.023100,9.744102,-0.118244,0.213985,0.070307
1980-01-06T01:09:47.665624287Z,-1.156399,-1.824382,9.614815,-0.129829,0.165515,0.039415
1980-01-06T01:09:47.685465537Z,-1.315614,-1.818396,9.418490,-0.111453,0.118111,0.023436
1980-01-06T01:09:47.705335798Z,-1.249773,-2.011129,9.274838,-0.114782,0.081626,0.022371
1980-01-06T01:09:47.725238090Z,-1.098939,-1.932121,9.329605,-0.190283,0.122372,0.036752
1980-01-06T01:09:47.745088037Z,-1.124078,-2.006341,9.530719,-0.183625,0.159790,0.034621
1980-01-06T01:09:47.764973142Z,-1.265336,-2.043451,9.583391,-0.160855,0.146341,0.027164
1980-01-06T01:09:47.784837360Z,-1.171962,-2.286463,9.573814,-0.164184,0.099602,0.015446
1980-01-06T01:09:47.804714339Z,-1.023521,-2.282871,9.985617,-0.213053,0.056459,0.006924
1980-01-06T01:09:47.824567256Z,-1.205481,-2.194286,9.880272,-0.164850,0.085887,0.019707
1980-01-06T01:09:47.844449131Z,-1.213860,-2.250550,9.683948,-0.084289,0.188685,0.006924
1980-01-06T01:09:47.864347881Z,-1.205481,-2.264915,9.851542,-0.059522,0.195076,0.011185
1980-01-06T01:09:47.884202829Z,-1.405396,-2.273294,9.551069,-0.002131,0.164184,-0.010120
1980-01-06T01:09:47.904084496Z,-1.654393,-2.175132,9.287707,0.024634,0.175236,-0.036752
1980-01-06T01:09:47.923979912Z,-1.710657,-2.287660,9.236531,0.003595,0.126234,-0.023436
1980-01-06T01:09:47.943804704Z,-1.594538,-2.244564,9.279627,-0.100934,0.096406,-0.002131
1980-01-06T01:09:47.963686423Z,-1.614889,-2.200271,9.317934,-0.084822,0.084023,-0.009587
1980-01-06T01:09:47.983546371Z,-1.558625,-2.286463,9.475951,-0.082824,0.043942,0.006392
1980-01-06T01:09:48.003429808Z,-1.449689,-2.415750,9.413702,-0.083224,0.027431,0.012783
1980-01-06T01:09:48.023292464Z,-1.537078,-2.266112,9.511565,-0.054062,0.044608,0.006924
1980-01-06T01:09:48.043184704Z,-1.550246,-2.384625,9.243414,-0.027164,0.045806,0.012251
1980-01-06T01:09:48.063030746Z,-1.534683,-2.268506,9.296086,-0.039947,0.139683,0.011185
1980-01-06T01:09:48.082898819Z,-1.464054,-2.352303,9.243414,-0.060454,0.177633,0.005859
1980-01-06T01:09:48.102779339Z,-1.493982,-2.372654,9.267356,0.120508,0.190283,-0.041013
1980-01-06T01:09:48.122633141Z,-1.564611,-2.266112,9.454104,0.114250,0.170043,-0.035686
1980-01-06T01:09:48.142498766Z,-1.533486,-2.360683,9.535507,0.080294,0.103331,-0.031425
1980-01-06T01:09:48.162427100Z,-1.801637,-2.328361,9.549872,0.153664,0.135155,-0.044208
1980-01-06T01:09:48.182271944Z,-1.854309,-2.275689,9.530719,0.156061,0.165648,-0.033556
1980-01-06T01:09:48.202148141Z,-1.719037,-2.360683,9.334394,0.108391,0.188285,-0.025034
1980-01-06T01:09:48.241913714Z,-1.769315,-2.138022,9.540296,0.090547,0.159124,-0.010120
1980-01-06T01:09:48.261756683Z,-1.732205,-2.202666,9.475951,0.112518,0.162852,-0.034088
1980-01-06T01:09:48.281587621Z,-1.740585,-2.160767,9.548675,0.107858,0.096540,-0.053796
1980-01-06T01:09:48.301486996Z,-1.704672,-2.218228,9.548675,0.120508,0.031026,-0.076166
1980-01-06T01:09:48.321355746Z,-1.752556,-2.059013,9.400234,0.145009,0.038083,-0.102798
1980-01-06T01:09:48.341243506Z,-1.891419,-1.988384,9.482835,0.103730,-0.003862,-0.107059
1980-01-06T01:09:48.361111891Z,-1.900996,-1.951274,9.411008,0.094276,-0.016778,-0.111320
1980-01-06T01:09:48.380802516Z,-1.990779,-2.001553,9.334394,0.058190,0.017843,-0.114516
1980-01-06T01:09:48.400653037Z,-2.043451,-1.808819,9.645640,0.041678,0.076033,-0.092145
1980-01-06T01:09:48.420711162Z,-2.100912,-1.954866,9.383475,0.078696,0.162985,-0.088950
1980-01-06T01:09:48.440560016Z,-1.958457,-1.856703,9.326015,0.074302,0.229964,-0.101733
1980-01-06T01:09:48.460455068Z,-1.938106,-1.741782,9.335591,0.031425,0.168178,-0.096406
1980-01-06T01:09:48.480385954Z,-2.005144,-1.798046,9.254189,0.074435,0.112918,-0.119842
1980-01-06T01:09:48.500175693Z,-1.972822,-1.871069,9.110536,0.073770,0.070574,-0.132625
1980-01-06T01:09:48.520196943Z,-1.950077,-1.832761,9.148843,0.034355,0.017976,-0.130495
1980-01-06T01:09:48.539962516Z,-1.941698,-1.777695,9.268554,-0.031026,-0.036618,-0.121973
1980-01-06T01:09:48.559824183Z,-1.940500,-1.760935,9.570223,-0.038616,-0.055527,-0.129430
1980-01-06T01:09:48.579685641Z,-2.163161,-1.770512,9.768942,-0.019441,-0.062584,-0.110255
1980-01-06T01:09:48.599554600Z,-2.208651,-1.808819,9.668385,0.035953,0.040347,-0.121973
1980-01-06T01:09:48.619275798Z,-2.292448,-1.784877,9.869498,0.085487,0.058057,-0.104928
1980-01-06T01:09:48.639308089Z,-2.357092,-1.728614,9.907805,0.103197,0.009987,-0.066579
1980-01-06T01:09:48.659169495Z,-2.413355,-1.723825,9.778519,0.128497,-0.042211,-0.036752
1980-01-06T01:09:48.679041683Z,-2.565387,-1.722628,9.717466,0.113051,-0.051932,0.013316
1980-01-06T01:09:48.698886266Z,-2.372654,-1.657985,9.592968,0.149536,-0.039415,0.025034
1980-01-06T01:09:48.718772464Z,-2.211045,-1.766921,9.468470,0.100268,-0.059788,-0.012251
1980-01-06T01:09:48.738657516Z,-2.128445,-1.726219,9.598953,0.077897,-0.145142,0.001598
1980-01-06T01:09:48.758544547Z,-2.072181,-1.668759,9.474455,0.114915,-0.165915,0.019707
1980-01-06T01:09:48.778414964Z,-2.080561,-1.759738,9.618107,0.186022,-0.074968,0.030360
1980-01-06T01:09:48.798279600Z,-1.835156,-1.740585,9.383475,0.156461,0.020773,0.004794
1980-01-06T01:09:48.818151891Z,-1.675941,-1.558625,9.407417,0.138617,-0.060986,-0.023968
1980-01-06T01:09:48.838017047Z,-1.705869,-1.544260,9.158420,0.075900,-0.120108,-0.050600
1980-01-06T01:09:48.857889027Z,-1.607706,-1.405396,9.129689,0.025167,-0.139283,-0.091080
1980-01-06T01:09:48.877755589Z,-1.582567,-1.368286,9.426571,0.039282,-0.253666,-0.098537
1980-01-06T01:09:48.897625433Z,-1.697489,-1.410185,9.225458,0.053396,-0.255930,-0.087884
1980-01-06T01:09:48.917489391Z,-1.731008,-1.465251,9.225458,0.153132,-0.110921,-0.121973
1980-01-06T01:09:48.937367412Z,-1.593341,-1.576582,9.434950,0.072837,-0.092012,-0.128364
1980-01-06T01:09:48.957211631Z,-1.528698,-1.628057,9.487623,0.038749,-0.115847,-0.117712
1980-01-06T01:09:48.977076995Z,-1.528698,-1.656788,9.731832,-0.072172,-0.138617,-0.108124
1980-01-06T01:09:48.996976683Z,-1.650802,-1.594538,9.727043,-0.097472,-0.114516,-0.102798
1980-01-06T01:09:49.016840016Z,-1.747767,-1.628057,9.841965,-0.026099,-0.058323,-0.110255
1980-01-06T01:09:49.036721162Z,-1.704672,-1.675941,9.841965,0.002397,-0.047138,-0.112385
1980-01-06T01:09:49.056568349Z,-1.648408,-1.568202,9.822811,0.021705,-0.119043,-0.102798
1980-01-06T01:09:49.076439599Z,-1.632846,-1.723825,9.665991,0.027963,-0.209324,-0.096406
1980-01-06T01:09:49.096338401Z,-1.511938,-1.660379,9.685144,-0.019175,-0.236355,-0.084688
1980-01-06T01:09:49.116246995Z,-1.477222,-1.532289,9.383475,0.001997,-0.216248,-0.081493
1980-01-06T01:09:49.136100901Z,-1.812411,-1.410185,9.275736,0.068710,-0.227567,-0.036752
1980-01-06T01:09:49.155945276Z,-2.224213,-1.533486,11.578958,0.273506,-0.457264,0.049535
1980-01-06T01:09:49.175832933Z,-1.776498,-1.716643,9.409811,0.249804,-0.126367,-0.060187
1980-01-06T01:09:49.195681735Z,-1.357512,-1.461660,9.826403,0.135155,-0.266582,-0.001598
1980-01-06T01:09:49.215535172Z,-1.383849,-1.395820,9.669582,-0.041812,-0.283360,-0.006924
1980-01-06T01:09:49.235415016Z,-1.344344,-1.271321,9.377489,0.033689,-0.291483,-0.011185
1980-01-06T01:09:49.255300172Z,-1.171962,-1.219846,9.252991,0.105328,-0.341017,0.013316
1980-01-06T01:09:49.275158870Z,-1.036689,-1.408988,9.343970,0.185489,-0.483896,0.056992
1980-01-06T01:09:49.295044495Z,-1.453280,-1.377863,9.722255,0.191747,-0.481899,0.043143
1980-01-06T01:09:49.314900433Z,-1.260547,-1.059434,9.613318,0.234092,-0.484162,0.102798
1980-01-06T01:09:49.334791683Z,-1.106121,-1.352724,9.718663,0.218645,-0.479901,0.086819
1980-01-06T01:09:49.354661787Z,-0.586579,-1.063026,9.771336,0.158991,-0.522778,0.060187
1980-01-06T01:09:49.374539287Z,-0.420182,-1.224634,9.421782,0.117578,-0.546081,-0.052731
1980-01-06T01:09:49.393968974Z,-0.723049,-0.955287,9.675568,0.076566,-0.626109,-0.028229
1980-01-06T01:09:49.414263037Z,-0.557849,-0.889446,9.498397,0.093477,-0.649012,0.026099
1980-01-06T01:09:49.434167099Z,-0.319626,-1.037886,9.874287,0.166714,-0.529436,-0.010120
1980-01-06T01:09:49.453991891Z,-0.330400,-1.112107,9.759365,0.252601,-0.400805,-0.053796
1980-01-06T01:09:49.473848245Z,-0.158017,-0.951695,9.768942,0.242347,-0.366983,-0.038882
1980-01-06T01:09:49.493907828Z,-0.611719,-0.565032,10.281301,0.427038,-0.029961,-0.065514
1980-01-06T01:09:49.513626839Z,0.229843,-1.210269,9.316438,0.404134,0.015579,-0.076166
1980-01-06T01:09:49.533487255Z,0.128090,-0.848745,10.049063,0.389753,-0.028629,-0.067644
1980-01-06T01:09:49.553365589Z,-0.010774,-0.768539,9.632472,0.346078,-0.013982,-0.048469
1980-01-06T01:09:49.573230068Z,0.144849,-0.787692,9.742605,0.355399,-0.023169,-0.044208
1980-01-06T01:09:49.593093297Z,0.051475,-0.817620,9.718663,0.365918,-0.017976,-0.046339
1980-01-06T01:09:49.612959912Z,0.034716,-0.642843,9.776124,0.359260,-0.007191,-0.060187
1980-01-06T01:09:49.632874339Z,0.049081,-0.505177,9.618107,0.343681,-0.010386,-0.083623
1980-01-06T01:09:49.652713505Z,-0.186748,-0.407014,9.699510,0.386291,-0.017311,-0.090015
1980-01-06T01:09:49.672560172Z,-0.168791,-0.282516,9.646837,0.380832,-0.005859,-0.072971
1980-01-06T01:09:49.692451578Z,-0.102951,-0.102951,10.705074,0.288553,-0.045540,-0.059122
1980-01-06T01:09:49.712364808Z,-0.204704,-0.593762,9.804854,0.061785,-0.023303,-0.083623
1980-01-06T01:09:49.732233662Z,-0.075417,-0.328006,9.742605,0.028762,-0.020773,-0.100667
1980-01-06T01:09:49.752098714Z,-0.138864,-0.074220,9.748890,0.037950,-0.008922,-0.104396
1980-01-06T01:09:49.771952412Z,-0.081403,-0.162806,9.648334,0.029162,-0.003728,-0.084156
1980-01-06T01:09:49.791823245Z,-0.013168,-0.256180,9.739313,-0.016778,-0.005593,-0.054328
1980-01-06T01:09:49.811680016Z,0.114922,-0.259771,9.801562,0.029561,-0.003329,-0.096939
1980-01-06T01:09:49.831543922Z,-0.026336,-0.311246,9.724948,0.021172,-0.009587,-0.132093
1980-01-06T01:09:49.851430016Z,-0.035913,-0.118513,9.706094,0.011718,-0.012783,-0.122505
1980-01-06T01:09:49.871272828Z,0.028730,-0.059855,9.715671,-0.003595,-0.003329,-0.090547
1980-01-06T01:09:49.891161266Z,-0.032322,-0.093374,9.797073,0.006125,-0.004527,-0.108657
1980-01-06T01:09:49.911046110Z,-0.213084,0.022745,9.806650,0.017044,-0.008655,-0.112918
1980-01-06T01:09:49.930889130Z,-0.184354,-0.029928,9.811439,0.019707,-0.012650,-0.074568
1980-01-06T01:09:49.950785380Z,-0.237026,-0.281319,9.662998,0.012117,-0.009454,-0.083091
1980-01-06T01:09:49.970641162Z,0.026336,-0.169988,9.828796,-0.008922,-0.009987,-0.130495
1980-01-06T01:09:49.990544807Z,-0.287304,0.000000,9.742605,0.012517,-0.006125,-0.042078
1980-01-06T01:09:50.010332151Z,-0.403423,0.062249,9.575011,0.004128,-0.011052,-0.009055
1980-01-06T01:09:50.030106995Z,-0.421380,0.043096,9.928156,0.040879,-0.012117,-0.035686
1980-01-06T01:09:50.089893922Z,-0.101754,0.287304,10.067019,0.010386,-0.015846,-0.015446
1980-01-06T01:09:50.109755380Z,-0.040701,-0.165200,9.685144,-0.020906,-0.013715,-0.018642
1980-01-06T01:09:50.129454287Z,-0.041899,-0.257377,9.689933,0.000133,-0.006791,-0.009055
1980-01-06T01:09:50.149391682Z,-0.035913,-0.134075,9.728240,-0.021838,-0.009454,-0.000533
1980-01-06T01:09:50.169198766Z,-0.044293,-0.056264,9.704298,-0.017044,-0.009321,0.039947
1980-01-06T01:09:50.189036839Z,0.015562,-0.271742,9.728240,-0.008522,-0.005459,0.058057
1980-01-06T01:09:50.208944703Z,-0.055067,-0.281319,9.675568,0.009587,-0.006392,-0.016512
1980-01-06T01:09:50.228797776Z,-0.043096,-0.070629,9.752182,-0.019441,-0.012916,-0.017577
1980-01-06T01:09:50.248693401Z,-0.083797,-0.128090,9.787197,-0.005726,-0.006525,0.046872
1980-01-06T01:09:50.268654964Z,-0.005986,-0.295684,9.697116,-0.006392,-0.006658,0.014381
1980-01-06T01:09:50.288570120Z,-0.029928,-0.251391,9.644443,0.000666,-0.013183,-0.014381
1980-01-06T01:09:50.308453141Z,0.005986,-0.227449,9.701904,-0.011318,-0.009454,-0.014381
1980-01-06T01:09:50.328174286Z,-0.011971,-0.202310,9.706693,-0.001997,-0.007590,-0.014381
1980-01-06T01:09:50.348059130Z,-0.033519,-0.180762,9.721058,-0.005060,-0.008522,-0.015446
1980-01-06T01:09:50.387784078Z,-0.031125,-0.215478,9.712678,-0.001332,-0.007989,-0.014381
1980-01-06T01:09:50.407625172Z,-0.027533,-0.204704,9.703101,-0.001598,-0.007723,-0.014381
1980-01-06T01:09:50.427810588Z,-0.025139,-0.209493,9.713875,-0.000000,-0.008256,-0.014381
1980-01-06T01:09:50.447531838Z,-0.040701,-0.204704,9.709086,-0.003063,-0.008788,-0.014381
1980-01-06T01:09:50.467430172Z,-0.037110,-0.201113,9.723452,-0.003063,-0.009321,-0.014381
1980-01-06T01:09:50.487299859Z,-0.025139,-0.192733,9.713875,-0.001997,-0.008788,-0.014381
1980-01-06T01:09:50.507165016Z,-0.031125,-0.201113,9.718663,-0.001065,-0.007989,-0.014381
1980-01-06T01:09:50.527049651Z,-0.025139,-0.197522,9.716269,-0.001997,-0.009188,-0.015446
1980-01-06T01:09:50.546918974Z,-0.023942,-0.189142,9.734525,-0.001332,-0.007590,-0.013848
1980-01-06T01:09:50.566938401Z,-0.035913,-0.198719,9.724948,-0.002796,-0.008655,-0.013848
1980-01-06T01:09:50.586649391Z,-0.026336,-0.198719,9.724948,-0.001332,-0.007723,-0.013848
1980-01-06T01:09:50.606442776Z,-0.033519,-0.195127,9.722255,-0.001731,-0.009055,-0.014381
1980-01-06T01:09:50.626186265Z,-0.027533,-0.205901,9.707890,-0.001065,-0.008522,-0.015446
1980-01-06T01:09:50.646075015Z,-0.029928,-0.199916,9.717466,-0.001065,-0.007989,-0.014381
1980-01-06T01:09:50.666087255Z,-0.026336,-0.196325,9.722255,-0.003063,-0.008655,-0.014381
1980-01-06T01:09:50.705836995Z,-0.014365,-0.197522,9.727043,-0.000799,-0.008655,-0.014381
1980-01-06T01:09:50.725727359Z,-0.002394,-0.198719,9.733028,-0.002929,-0.008922,-0.014381
1980-01-06T01:09:50.745431005Z,-0.017957,-0.202310,9.713875,-0.001198,-0.007590,-0.014381
1980-01-06T01:09:50.765282828Z,-0.022745,-0.214281,9.699510,-0.002397,-0.008522,-0.014381
1980-01-06T01:09:50.785153297Z,-0.026336,-0.204704,9.723452,-0.002663,-0.009321,-0.014381
1980-01-06T01:09:50.805231943Z,-0.002394,-0.189142,9.734525,-0.001997,-0.009055,-0.013848
1980-01-06T01:09:50.825077463Z,-0.014365,-0.191536,9.711481,-0.000133,-0.008389,-0.014381
1980-01-06T01:09:50.844770015Z,-0.010774,-0.196325,9.716269,-0.000266,-0.008522,-0.015446
1980-01-06T01:09:50.864625797Z,-0.029928,-0.199916,9.711481,-0.001731,-0.008922,-0.014381
1980-01-06T01:09:50.884499338Z,-0.014365,-0.190339,9.725846,-0.001997,-0.009055,-0.015446
1980-01-06T01:09:50.904525172Z,-0.007183,-0.190339,9.711481,-0.001065,-0.008522,-0.015446
1980-01-06T01:09:50.924449182Z,0.003591,-0.204704,9.716269,-0.001465,-0.007989,-0.014381
1980-01-06T01:09:50.944355692Z,-0.010774,-0.192733,9.725247,-0.002264,-0.008389,-0.014914
1980-01-06T01:09:50.964172203Z,-0.015562,-0.187945,9.734824,-0.002530,-0.007590,-0.013848
1980-01-06T01:09:50.984036682Z,-0.022745,-0.187945,9.734824,-0.001332,-0.007723,-0.013848
1980-01-06T01:09:51.023916578Z,-0.148441,-0.298078,9.351752,-0.009055,-0.008655,-0.013848
1980-01-06T01:09:51.043643505Z,-0.131681,-0.258574,9.498397,0.002530,-0.006791,-0.015446
1980-01-06T01:09:51.063473192Z,-0.073023,-0.087388,9.847950,0.000399,-0.010653,-0.014381
1980-01-06T01:09:51.083393349Z,0.009577,-0.207098,9.522339,0.007324,-0.011851,-0.013316
1980-01-06T01:09:51.103288297Z,0.039504,-0.227449,9.699510,-0.002663,-0.008123,-0.014381
1980-01-06T01:09:51.123138817Z,-0.005986,-0.215478,9.900622,-0.004128,-0.008788,-0.014381
1980-01-06T01:09:51.162774494Z,-0.029928,-0.214281,9.675568,-0.003862,-0.007590,-0.014381
1980-01-06T01:09:51.182728609Z,-0.028730,-0.199916,9.670779,-0.005992,-0.008389,-0.015446
1980-01-06T01:09:51.202632151Z,-0.034716,-0.198719,9.723452,-0.001198,-0.007989,-0.014381
1980-01-06T01:09:51.222548922Z,-0.016759,-0.217872,9.661202,-0.000666,-0.009587,-0.015446
1980-01-06T01:09:51.242361630Z,-0.020351,-0.169988,9.653421,0.003196,-0.008788,-0.013848
1980-01-06T01:09:51.262221578Z,-0.020351,-0.161609,9.730036,-0.001198,-0.007723,-0.013848
1980-01-06T01:09:51.282136838Z,0.008380,-0.210690,9.768343,-0.002530,-0.008522,-0.014914
1980-01-06T01:09:51.321939494Z,-0.027533,-0.199916,9.730036,-0.002796,-0.007856,-0.013848
1980-01-06T01:09:51.341726630Z,-0.028730,-0.180762,9.706094,-0.001731,-0.007856,-0.013848
1980-01-06T01:09:51.361575067Z,-0.044293,-0.185551,9.715671,-0.003063,-0.009321,-0.013848
1980-01-06T01:09:51.381459234Z,-0.043096,-0.190339,9.691729,-0.001465,-0.008522,-0.012783
1980-01-06T01:09:51.401460588Z,-0.014365,-0.235829,9.667787,0.002929,-0.012117,-0.013848
1980-01-06T01:09:51.421212932Z,0.051475,-0.173580,9.725247,-0.001332,-0.007989,-0.013848
1980-01-06T01:09:51.480814598Z,-0.039504,-0.294487,9.667487,0.005859,-0.009587,-0.011718
1980-01-06T01:09:51.500662411Z,-0.035913,-0.259771,9.715371,0.001198,-0.007590,-0.010653
1980-01-06T01:09:51.520606838Z,0.040701,-0.199916,9.772832,0.003063,-0.007191,0.003196
1980-01-06T01:09:51.540400119Z,0.002394,-0.010774,9.815928,-0.000133,-0.009454,-0.013848
1980-01-06T01:09:51.560143192Z,-0.077812,-0.111330,9.739313,-0.009188,-0.007723,-0.012783
1980-01-06T01:09:51.580009390Z,-0.053870,-0.262165,9.715371,-0.002796,-0.008655,-0.013848
1980-01-06T01:09:51.599871421Z,-0.001197,-0.316035,9.643545,-0.000000,-0.007723,-0.011718
1980-01-06T01:09:51.619936265Z,0.021548,-0.180762,9.709086,0.003329,-0.009055,-0.014381
1980-01-06T01:09:51.639748505Z,-0.026336,-0.090980,9.766547,0.000399,-0.007723,-0.015446
1980-01-06T01:09:51.659674130Z,-0.057461,-0.142455,9.737817,-0.004527,-0.007989,-0.014381
1980-01-06T01:09:51.679515067Z,-0.053870,-0.262165,9.670779,-0.003196,-0.007856,-0.014381
1980-01-06T01:09:51.699401942Z,0.003591,-0.281319,9.699510,-0.000000,-0.009055,-0.015446
1980-01-06T01:09:51.719290640Z,0.021548,-0.199916,9.733028,0.001864,-0.009454,-0.015446
1980-01-06T01:09:51.739165328Z,-0.051475,-0.137667,9.723452,0.003196,-0.007723,-0.014381
1980-01-06T01:09:51.758845015Z,-0.070629,-0.126893,9.763255,-0.002530,-0.008788,-0.014914
1980-01-06T01:09:51.778745067Z,0.010774,-0.143652,9.739313,-0.002397,-0.009321,-0.014914
1980-01-06T01:09:51.798578661Z,0.038307,-0.258574,9.706094,0.000666,-0.009587,-0.013848
1980-01-06T01:09:51.818455692Z,-0.027533,-0.262165,9.720160,-0.003728,-0.008522,-0.014914
1980-01-06T01:09:51.838304755Z,-0.061052,-0.137667,9.753678,0.000666,-0.007856,-0.013848
1980-01-06T01:09:51.858251473Z,-0.040701,-0.134075,9.753678,-0.003063,-0.009188,-0.013848
1980-01-06T01:09:51.878061890Z,-0.014365,-0.148441,9.768044,-0.003462,-0.008522,-0.014914
1980-01-06T01:09:51.898141161Z,-0.004788,-0.223858,9.691429,-0.002397,-0.008389,-0.013848
1980-01-06T01:09:51.917849963Z,-0.049081,-0.251391,9.686641,-0.000799,-0.009321,-0.013848
1980-01-06T01:09:51.937730015Z,-0.035913,-0.198719,9.715371,0.002264,-0.009188,-0.013848
1980-01-06T01:09:51.957789859Z,-0.022745,-0.120907,9.768044,0.002131,-0.008123,-0.014914
1980-01-06T01:09:51.977590796Z,0.004788,-0.156820,9.734525,-0.004128,-0.009188,-0.014914
1980-01-06T01:09:51.997456317Z,-0.022745,-0.225055,9.710583,-0.003196,-0.007723,-0.014914
1980-01-06T01:09:52.017351369Z,-0.051475,-0.247800,9.699510,-0.001198,-0.008389,-0.015446
1980-01-06T01:09:52.037089807Z,-0.039504,-0.198719,9.737817,0.001465,-0.008256,-0.015446
1980-01-06T01:09:52.057045223Z,-0.022745,-0.135272,9.747394,-0.000266,-0.009321,-0.015446
1980-01-06T01:09:52.096803036Z,-0.034716,-0.226252,9.718663,-0.002264,-0.007856,-0.014381
1980-01-06T01:09:52.116765432Z,-0.026336,-0.225055,9.713875,-0.000266,-0.008256,-0.014381
1980-01-06T01:09:52.136533973Z,-0.027533,-0.178368,9.734824,0.000533,-0.008522,-0.014914
1980-01-06T01:09:52.156455484Z,-0.017957,-0.147243,9.734824,-0.001997,-0.009454,-0.014914
1980-01-06T01:09:52.176310900Z,-0.019154,-0.162806,9.739613,-0.002929,-0.009454,-0.014914
1980-01-06T01:09:52.199595588Z,-0.025139,-0.193930,9.720459,-0.003329,-0.007590,-0.014914
1980-01-06T01:09:52.235762254Z,-0.021548,-0.196325,9.710882,-0.000399,-0.007723,-0.013848
1980-01-06T01:09:52.255617359Z,-0.025139,-0.183156,9.715671,-0.001198,-0.007590,-0.013848
1980-01-06T01:09:52.275574702Z,-0.039504,-0.186748,9.720459,-0.000399,-0.007856,-0.013848
1980-01-06T01:09:52.295369546Z,-0.014365,-0.184354,9.733028,-0.000133,-0.008522,-0.014381
1980-01-06T01:09:52.315260379Z,-0.011971,-0.180762,9.723452,-0.004128,-0.009587,-0.015446
1980-01-06T01:09:52.335110796Z,-0.023942,-0.181959,9.723452,0.000932,-0.007989,-0.015446
1980-01-06T01:09:52.374870067Z,-0.029928,-0.179565,9.723452,-0.000399,-0.007989,-0.015446
1980-01-06T01:09:52.394713713Z,-0.026336,-0.201113,9.713875,-0.001065,-0.007590,-0.014381
1980-01-06T01:09:52.414609702Z,-0.016759,-0.199916,9.723452,-0.002397,-0.007590,-0.014381
1980-01-06T01:09:52.434447567Z,-0.034716,-0.203507,9.713875,-0.001997,-0.009321,-0.014381
1980-01-06T01:09:52.454564234Z,-0.039504,-0.205901,9.713875,0.001065,-0.007989,-0.014381
1980-01-06T01:09:52.474431994Z,-0.035913,-0.173580,9.742605,-0.001198,-0.007590,-0.014381
1980-01-06T01:09:52.494286056Z,-0.023942,-0.184354,9.718663,-0.000666,-0.009587,-0.015446
1980-01-06T01:09:52.514147827Z,-0.003591,-0.185551,9.733028,-0.001997,-0.008655,-0.014381
1980-01-06T01:09:52.534055692Z,-0.035913,-0.178368,9.728240,-0.001997,-0.009055,-0.014381
1980-01-06T01:09:52.553718609Z,-0.052672,-0.167594,9.713875,-0.000932,-0.009587,-0.015446
1980-01-06T01:09:52.573567515Z,-0.031125,-0.201113,9.733028,-0.000000,-0.007856,-0.014381
1980-01-06T01:09:52.593446108Z,-0.016759,-0.183156,9.723452,-0.002796,-0.007989,-0.014381
1980-01-06T01:09:52.613316056Z,-0.026336,-0.197522,9.713875,-0.002131,-0.007989,-0.014381
1980-01-06T01:09:52.633538400Z,-0.019154,-0.203507,9.718663,-0.001864,-0.007723,-0.014381
1980-01-06T01:09:52.653193088Z,-0.027533,-0.184354,9.724948,-0.001198,-0.008256,-0.013848
1980-01-06T01:09:52.673091265Z,-0.023942,-0.192733,9.729736,-0.000533,-0.008256,-0.014914
1980-01-06T01:09:52.692987046Z,-0.028730,-0.177171,9.744102,-0.000666,-0.007723,-0.013848
1980-01-06T01:09:52.712878817Z,-0.011971,-0.165200,9.729736,-0.002530,-0.007856,-0.013848
1980-01-06T01:09:52.732701265Z,-0.050278,-0.184354,9.739313,-0.001997,-0.008655,-0.013848
1980-01-06T01:09:52.752465015Z,-0.032322,-0.187945,9.710583,-0.002397,-0.007856,-0.013848
1980-01-06T01:09:52.772256577Z,-0.034716,-0.215478,9.720160,-0.002663,-0.008256,-0.013848
1980-01-06T01:09:52.792140848Z,-0.028730,-0.187945,9.724948,-0.001332,-0.007723,-0.013848
1980-01-06T01:09:52.812121317Z,0.028730,-0.190339,9.715371,-0.000932,-0.008922,-0.013848
1980-01-06T01:09:52.831883244Z,-0.019154,-0.192733,9.715371,-0.002929,-0.008922,-0.013848
1980-01-06T01:09:52.851760275Z,-0.014365,-0.185551,9.744102,-0.000266,-0.008522,-0.014914
1980-01-06T01:09:52.871635640Z,-0.046687,-0.201113,9.677064,-0.001465,-0.009188,-0.013848
1980-01-06T01:09:52.891499650Z,-0.013168,-0.174777,9.720160,-0.001332,-0.007989,-0.014914
1980-01-06T01:09:52.911570431Z,-0.019154,-0.189142,9.715371,-0.000133,-0.008256,-0.014914
1980-01-06T01:09:52.931482827Z,-0.008380,-0.174777,9.677064,-0.001332,-0.008256,-0.014914
