timestamp,accel_x,accel_y,accel_z,gyro_x,gyro_y,gyro_z
1980-01-06T00:10:53.863236313Z,-0.083797,-0.063446,10.065523,-0.031159,-0.005593,-0.013316
1980-01-06T00:10:53.884001417Z,0.049081,0.146046,9.792584,0.005992,-0.013183,-0.013316
1980-01-06T00:10:53.903865792Z,-0.040701,-0.159214,9.658509,0.023835,-0.009854,-0.014381
1980-01-06T00:10:53.923713708Z,-0.112527,-0.222661,9.759066,-0.018775,-0.006924,-0.013316
1980-01-06T00:10:53.943457979Z,0.022745,-0.074220,9.754277,-0.020240,-0.006658,-0.013316
1980-01-06T00:10:53.963306052Z,-0.022745,-0.144849,9.648932,-0.001332,-0.007324,-0.014381
1980-01-06T00:10:53.983296521Z,-0.090980,-0.165200,9.701605,-0.001198,-0.008389,-0.014381
1980-01-06T00:10:54.003049542Z,-0.041899,-0.123301,9.730335,0.003063,-0.009321,-0.014381
1980-01-06T00:10:54.042782875Z,-0.061052,-0.144849,9.711182,-0.008123,-0.006791,-0.014381
1980-01-06T00:10:54.062662302Z,-0.031125,-0.089783,9.749489,-0.004128,-0.008389,-0.015446
1980-01-06T00:10:54.082662823Z,-0.040701,-0.175974,9.696816,0.006392,-0.007457,-0.015446
1980-01-06T00:10:54.102468604Z,-0.068235,-0.232238,9.701605,-0.001864,-0.008123,-0.014381
1980-01-06T00:10:54.122298240Z,-0.093374,-0.153229,9.720758,-0.008922,-0.007191,-0.014381
1980-01-06T00:10:54.142167823Z,-0.071826,-0.099359,9.720758,-0.000000,-0.008256,-0.015446
1980-01-06T00:10:54.162056937Z,-0.052672,-0.156820,9.713875,0.002796,-0.007590,-0.014381
1980-01-06T00:10:54.181897302Z,-0.067038,-0.199916,9.694721,-0.002530,-0.008256,-0.015446
1980-01-06T00:10:54.201727458Z,-0.037110,-0.164003,9.713875,-0.005326,-0.008389,-0.014381
1980-01-06T00:10:54.221627354Z,-0.052672,-0.138864,9.713875,0.000399,-0.009055,-0.014381
1980-01-06T00:10:54.241473135Z,-0.079009,-0.179565,9.691429,-0.000799,-0.008123,-0.013848
1980-01-06T00:10:54.281221729Z,-0.035913,-0.136469,9.723452,-0.003462,-0.007457,-0.014381
1980-01-06T00:10:54.301107302Z,-0.061052,-0.166397,9.689933,-0.000399,-0.006658,-0.014381
1980-01-06T00:10:54.321015739Z,-0.057461,-0.162806,9.704298,-0.000399,-0.008123,-0.014381
1980-01-06T00:10:54.340825479Z,-0.056264,-0.155623,9.715671,-0.002131,-0.007723,-0.014381
1980-01-06T00:10:54.360690896Z,-0.070629,-0.155623,9.710882,-0.001465,-0.007191,-0.014381
1980-01-06T00:10:54.380557719Z,-0.062249,-0.147243,9.715671,-0.001598,-0.008389,-0.014381
1980-01-06T00:10:54.400419177Z,-0.050278,-0.160412,9.710882,-0.001332,-0.007590,-0.013316
1980-01-06T00:10:54.420314021Z,-0.070629,-0.156820,9.706094,-0.001065,-0.006525,-0.014381
1980-01-06T00:10:54.440235062Z,-0.049081,-0.147243,9.715671,-0.001332,-0.006658,-0.014381
1980-01-06T00:10:54.460093031Z,-0.068235,-0.144849,9.725247,-0.001332,-0.008522,-0.014381
1980-01-06T00:10:54.499764646Z,-0.067038,-0.162806,9.720459,-0.001332,-0.008389,-0.015446
1980-01-06T00:10:54.519611729Z,-0.050278,-0.154426,9.715671,-0.002796,-0.008256,-0.014381
1980-01-06T00:10:54.539505531Z,-0.064643,-0.147243,9.715671,-0.001065,-0.007057,-0.014381
1980-01-06T00:10:54.559335844Z,-0.057461,-0.153229,9.710283,-0.001332,-0.007457,-0.013848
1980-01-06T00:10:54.579239177Z,-0.059855,-0.166397,9.710283,-0.001332,-0.006791,-0.013848
1980-01-06T00:10:54.599107771Z,-0.324414,-0.380678,9.925761,-0.104396,-0.009987,-0.012783
1980-01-06T00:10:54.638910531Z,-0.142455,-0.120907,9.758167,0.022104,-0.007989,-0.012783
1980-01-06T00:10:54.658681312Z,-0.003591,-0.043096,9.686341,-0.001065,-0.004661,-0.010653
1980-01-06T00:10:54.678580427Z,-0.055067,0.082600,9.825205,0.012251,-0.006125,-0.010653
1980-01-06T00:10:54.698443135Z,-0.028730,0.029928,9.786898,0.006525,-0.012783,-0.008522
1980-01-06T00:10:54.718305948Z,0.049081,-0.429759,9.585785,-0.024501,-0.018775,0.050067
1980-01-06T00:10:54.738173812Z,0.057461,-0.140061,9.619304,-0.000932,-0.016645,-0.019175
1980-01-06T00:10:54.758045635Z,-0.101754,-0.166397,9.762956,0.007324,-0.011052,-0.014914
1980-01-06T00:10:54.797750479Z,-0.007183,-0.021548,9.772532,0.024235,-0.007191,-0.013848
1980-01-06T00:10:54.817684073Z,-0.068235,-0.356736,9.648034,-0.031958,-0.003728,-0.012783
1980-01-06T00:10:54.837472666Z,-0.250194,-0.245406,9.609727,-0.015047,0.001198,-0.019175
1980-01-06T00:10:54.857355583Z,0.010774,-0.161609,9.762956,0.001465,-0.011585,-0.013848
1980-01-06T00:10:54.877220948Z,-0.035913,-0.169988,9.729437,0.032357,-0.011851,-0.012783
1980-01-06T00:10:54.897087718Z,-0.105345,-0.074220,9.715072,0.017843,-0.005326,-0.011718
1980-01-06T00:10:54.917739229Z,-0.026336,-0.180762,9.743802,-0.006258,-0.005859,-0.011718
1980-01-06T00:10:54.936848760Z,-0.068235,-0.178368,9.723751,0.033822,-0.004394,-0.013316
1980-01-06T00:10:54.956767823Z,-0.124498,-0.002394,9.513062,-0.029028,-0.016512,-0.004794
1980-01-06T00:10:54.976569854Z,-0.252588,-0.241814,9.613618,0.008922,-0.000666,0.002663
1980-01-06T00:10:54.996497458Z,0.089783,-0.125696,9.791986,0.035287,0.042877,0.017044
1980-01-06T00:10:55.016289854Z,0.409408,-0.165200,10.012252,0.105861,0.067112,0.033023
1980-01-06T00:10:55.036191052Z,-0.329203,-0.215478,10.385748,0.201068,0.387756,-0.139550
1980-01-06T00:10:55.056041833Z,-0.727837,0.252588,11.108797,0.328501,0.576441,-0.184291
1980-01-06T00:10:55.095777770Z,-0.227449,-0.129287,11.813590,-0.060853,0.428103,0.027164
1980-01-06T00:10:55.115620427Z,0.253785,0.074220,12.115259,-0.076166,0.150335,0.042078
1980-01-06T00:10:55.135568291Z,0.156820,0.035913,11.693581,0.004927,-0.241415,0.043143
1980-01-06T00:10:55.155430583Z,-0.248997,-0.231040,11.114183,-0.004661,-0.441951,0.067644
1980-01-06T00:10:55.175300479Z,-0.509965,-0.144849,10.525210,0.004527,-0.274039,0.041013
1980-01-06T00:10:55.195304958Z,-0.466869,-0.079009,10.352827,0.033955,-0.014248,0.028229
1980-01-06T00:10:55.234868083Z,-0.035913,-0.035913,10.276213,0.058723,0.040214,-0.025034
1980-01-06T00:10:55.254705427Z,-0.073023,-0.014365,10.281001,-0.070441,-0.182693,0.039947
1980-01-06T00:10:55.274590947Z,-0.155623,0.219069,10.169971,-0.092811,-0.298141,0.060720
1980-01-06T00:10:55.294435895Z,-0.254982,0.283713,10.031107,0.048603,-0.227167,0.009587
1980-01-06T00:10:55.314296781Z,-0.244209,-0.016759,9.719860,0.099070,-0.107991,0.019175
1980-01-06T00:10:55.334220687Z,-0.057461,-0.045490,9.777321,0.108124,0.024501,-0.014914
1980-01-06T00:10:55.354038656Z,0.100556,0.268151,10.174759,0.095208,0.062851,-0.068177
1980-01-06T00:10:55.373922406Z,-0.087388,0.213084,9.937433,0.113983,-0.062984,-0.020773
1980-01-06T00:10:55.393787614Z,-0.239420,0.124498,8.893561,0.358861,-0.076033,-0.096406
1980-01-06T00:10:55.413736208Z,-0.197522,0.160412,9.621399,0.143012,0.027297,-0.102798
1980-01-06T00:10:55.433547979Z,-0.035913,0.276530,9.487324,0.119842,-0.012916,-0.037817
1980-01-06T00:10:55.453381156Z,-0.124498,0.164003,9.115923,0.112119,0.001198,-0.058057
1980-01-06T00:10:55.473256781Z,-0.148441,0.070629,9.163807,0.087485,-0.027431,-0.104928
1980-01-06T00:10:55.493158447Z,-0.068235,0.251391,9.144653,0.037551,-0.134223,-0.084688
1980-01-06T00:10:55.532855374Z,-0.384269,0.248997,9.068638,0.143411,-0.242214,-0.062851
1980-01-06T00:10:55.552728968Z,-0.371101,0.129287,8.800786,0.239551,-0.169643,-0.092678
1980-01-06T00:10:55.572676833Z,-0.389058,0.198719,8.748114,0.222507,-0.128231,-0.095874
1980-01-06T00:10:55.592442614Z,-0.343568,0.185551,8.623615,0.148737,-0.093743,-0.098004
1980-01-06T00:10:55.612321729Z,-0.396240,0.134075,8.566154,0.049002,-0.047937,-0.090547
1980-01-06T00:10:55.632183395Z,-0.350751,0.345962,8.829516,-0.052597,-0.031692,-0.056459
1980-01-06T00:10:55.652132041Z,-0.342371,0.494403,9.049783,-0.042477,-0.007856,-0.078829
1980-01-06T00:10:55.691833551Z,-0.305261,0.475249,8.996213,0.068443,-0.115981,-0.059122
1980-01-06T00:10:55.711668031Z,-0.409408,0.409408,8.957906,0.091480,-0.077098,-0.050600
1980-01-06T00:10:55.731596520Z,-0.578200,0.300472,9.029732,0.069375,-0.033689,-0.022903
1980-01-06T00:10:55.751360635Z,-0.460884,0.439336,9.206903,0.024901,0.000399,0.010120
1980-01-06T00:10:55.771325166Z,-0.306458,0.537498,9.360131,0.045407,0.004527,-0.011185
1980-01-06T00:10:55.791121156Z,-0.266953,0.713472,9.249998,0.065247,-0.055261,0.002663
1980-01-06T00:10:55.830849645Z,-0.256180,0.562637,9.063251,0.079495,0.050201,0.010120
1980-01-06T00:10:55.850714228Z,-0.232238,0.500388,9.235633,0.031292,0.017311,0.055926
1980-01-06T00:10:55.870646781Z,-0.201113,0.509965,9.412804,-0.009055,-0.004794,0.049535
1980-01-06T00:10:55.890522301Z,-0.158017,0.555455,9.436746,-0.018109,-0.020506,0.056992
1980-01-06T00:10:55.910308968Z,-0.140061,0.512359,9.446322,-0.003063,-0.019308,0.070840
1980-01-06T00:10:55.930199176Z,-0.129287,0.408211,9.283517,-0.001065,0.034355,0.065514
1980-01-06T00:10:55.950064958Z,-0.069432,0.355539,9.384672,-0.049801,0.044874,0.066046
1980-01-06T00:10:55.989752510Z,-0.086191,0.438139,9.346664,-0.143811,0.015047,0.042611
1980-01-06T00:10:56.009667770Z,-0.100556,0.554258,9.313146,-0.164583,0.054861,0.034088
1980-01-06T00:10:56.029543864Z,-0.175974,0.560243,9.485528,-0.163518,0.026232,0.079895
1980-01-06T00:10:56.049398239Z,-0.313640,0.422577,9.412804,-0.172173,0.003329,0.068710
1980-01-06T00:10:56.069264228Z,-0.390255,0.441730,9.475053,-0.227966,-0.054195,0.104928
1980-01-06T00:10:56.089131468Z,-0.448913,0.542287,9.599552,-0.255663,-0.077232,0.174171
1980-01-06T00:10:56.128881676Z,-0.489614,0.429759,9.522937,-0.181761,0.051399,0.168844
1980-01-06T00:10:56.148836937Z,-0.427365,0.427365,9.628283,-0.207194,0.027031,0.185888
1980-01-06T00:10:56.168660426Z,-0.456095,0.440533,9.733627,-0.241948,-0.014914,0.222107
1980-01-06T00:10:56.188558291Z,-0.556652,0.489614,9.825205,-0.259658,-0.007723,0.243945
1980-01-06T00:10:56.208391364Z,-0.573411,0.501585,9.825205,-0.231295,0.055261,0.266316
1980-01-06T00:10:56.228281103Z,-0.501585,0.429759,10.006566,-0.208126,0.067777,0.320112
1980-01-06T00:10:56.248102770Z,-0.353145,0.294487,10.073604,-0.148737,0.053796,0.335025
1980-01-06T00:10:56.287828968Z,-0.399832,0.214281,10.274716,-0.180828,-0.015180,0.344613
1980-01-06T00:10:56.307704957Z,-0.307655,0.450110,10.485406,-0.208658,-0.085221,0.373375
1980-01-06T00:10:56.327596780Z,-0.357933,0.501585,10.605117,-0.145009,-0.156993,0.401072
1980-01-06T00:10:56.347408343Z,-0.429759,0.313640,10.581773,-0.089482,-0.154863,0.419714
1980-01-06T00:10:56.367281728Z,-0.415394,0.202310,10.553342,-0.075900,-0.151534,0.456998
1980-01-06T00:10:56.387205530Z,-0.347159,0.171185,10.562619,-0.100268,-0.156594,0.486825
1980-01-06T00:10:56.426948760Z,-0.158017,0.055067,10.509348,-0.096939,-0.197074,0.557665
1980-01-06T00:10:56.466662509Z,0.058658,0.107739,10.672154,0.003595,-0.240616,0.590689
1980-01-06T00:10:56.486541676Z,-0.064643,-0.156820,10.791864,0.015180,-0.286023,0.582166
1980-01-06T00:10:56.506383759Z,-0.013168,-0.136469,11.055226,-0.025167,-0.310391,0.573644
1980-01-06T00:10:56.526236155Z,0.210690,0.037110,11.060015,-0.026765,-0.329965,0.552339
1980-01-06T00:10:56.546096207Z,0.405817,-0.071826,10.662578,0.030493,-0.372576,0.535295
1980-01-06T00:10:56.566059280Z,0.683545,-0.234632,10.418368,0.071905,-0.322375,0.516120
1980-01-06T00:10:56.585875009Z,0.958878,-0.308852,10.572196,0.065381,-0.387490,0.552872
1980-01-06T00:10:56.605794332Z,0.821211,-0.695516,10.615292,0.077098,-0.497079,0.584830
1980-01-06T00:10:56.625630478Z,0.775721,-0.799663,10.787076,0.072305,-0.464189,0.576840
1980-01-06T00:10:56.645390739Z,0.962469,-0.620098,10.959458,0.079495,-0.416119,0.566188
1980-01-06T00:10:56.665343655Z,1.194707,-0.424971,10.609905,0.140881,-0.387756,0.518251
1980-01-06T00:10:56.685113603Z,1.429338,-0.423774,10.322600,0.222906,-0.422643,0.526773
1980-01-06T00:10:56.724865218Z,1.689109,-0.867898,10.557233,0.286822,-0.360059,0.460726
1980-01-06T00:10:56.744715947Z,1.595735,-0.939724,10.514136,0.297741,-0.414787,0.364853
1980-01-06T00:10:56.764619176Z,1.534683,-0.792481,10.332177,0.243146,-0.509462,0.304133
1980-01-06T00:10:56.784538447Z,1.535880,-0.903811,10.174160,0.198672,-0.470846,0.275371
1980-01-06T00:10:56.804344853Z,1.717840,-0.588974,10.351331,0.179231,-0.367915,0.266849
1980-01-06T00:10:56.824198551Z,1.861492,-0.499191,10.471041,0.255663,-0.351670,0.275371
1980-01-06T00:10:56.844056728Z,1.982399,-0.695516,10.494983,0.358594,-0.453669,0.226369
1980-01-06T00:10:56.883811520Z,1.832761,-0.937330,10.231621,0.394281,-0.716123,0.158192
1980-01-06T00:10:56.903677145Z,1.935712,-0.786495,10.064027,0.400672,-0.722648,0.123038
1980-01-06T00:10:56.943392093Z,2.207454,-0.748188,9.743204,0.498410,-0.697748,0.129430
1980-01-06T00:10:56.963297822Z,2.637213,-0.550666,9.551667,0.517851,-0.521180,0.083623
1980-01-06T00:10:56.983127561Z,2.829947,-0.488417,8.838196,0.585895,-0.510128,0.012251
1980-01-06T00:10:57.022879957Z,3.160346,-0.451307,9.331401,0.430233,-0.515055,-0.115581
1980-01-06T00:10:57.042732978Z,3.242946,-0.150835,9.264363,0.415053,-0.597080,-0.134756
1980-01-06T00:10:57.062617353Z,3.197456,-0.186748,8.890868,0.422776,-0.582433,-0.170975
1980-01-06T00:10:57.082457978Z,3.226187,-0.022745,8.479065,0.489355,-0.484562,-0.200802
1980-01-06T00:10:57.102344020Z,3.315969,0.250194,8.622718,0.471645,-0.469914,-0.193345
1980-01-06T00:10:57.122216468Z,3.505111,0.265756,8.541314,0.451805,-0.434628,-0.253000
1980-01-06T00:10:57.142094488Z,3.648763,0.079009,8.627506,0.379234,-0.436758,-0.276436
1980-01-06T00:10:57.181830843Z,3.633201,0.243011,8.728063,0.320511,-0.445147,-0.326503
1980-01-06T00:10:57.201678447Z,3.687071,0.424971,8.455123,0.362989,-0.387090,-0.361657
1980-01-06T00:10:57.221575738Z,3.797204,0.471658,8.067263,0.386158,-0.316383,-0.405333
1980-01-06T00:10:57.241446936Z,3.991134,0.454898,7.665037,0.375505,-0.223040,-0.452204
1980-01-06T00:10:57.261316728Z,4.055778,0.712275,7.641095,0.304266,-0.115847,-0.480966
1980-01-06T00:10:57.281228707Z,4.115633,0.846350,7.808689,0.255264,-0.130228,-0.510794
1980-01-06T00:10:57.301049540Z,4.043807,0.757765,7.535750,0.274572,-0.168844,-0.540621
1980-01-06T00:10:57.320950843Z,4.101267,0.574608,7.353790,0.282162,-0.117312,-0.573644
1980-01-06T00:10:57.340761467Z,4.205415,0.525527,7.205350,0.296809,-0.015713,-0.630103
1980-01-06T00:10:57.360724645Z,4.133589,0.602142,7.085640,0.278034,0.086153,-0.666322
1980-01-06T00:10:57.380592978Z,4.129998,0.855927,7.143101,0.249139,0.202933,-0.724912
1980-01-06T00:10:57.400383967Z,4.043807,1.089362,7.325060,0.177366,0.209058,-0.767522
1980-01-06T00:10:57.420341259Z,4.056975,1.472434,7.693767,0.107458,0.206395,-0.850613
1980-01-06T00:10:57.440115061Z,3.950433,1.685518,7.976283,0.107858,0.118111,-0.914529
1980-01-06T00:10:57.479861415Z,3.411737,1.564611,7.966706,0.148338,0.067245,-1.045556
1980-01-06T00:10:57.499672665Z,3.217807,1.337162,7.914034,0.112652,0.068310,-1.076449
1980-01-06T00:10:57.519558186Z,2.973598,1.264138,7.722497,0.092145,0.071772,-1.124386
1980-01-06T00:10:57.539394957Z,2.820370,1.543063,7.794323,0.042611,0.039681,-1.157409
1980-01-06T00:10:57.559323655Z,2.667141,1.675941,7.966706,0.000266,0.076300,-1.195758
1980-01-06T00:10:57.579156832Z,2.565387,1.825579,7.990648,0.024901,0.074169,-1.244760
1980-01-06T00:10:57.618891780Z,2.123657,2.194286,7.727286,0.054328,0.122106,-1.328916
1980-01-06T00:10:57.638745165Z,1.966837,2.541445,7.545327,0.014514,0.091080,-1.341699
1980-01-06T00:10:57.658670634Z,1.549049,2.895787,7.353790,-0.052198,0.094409,-1.361939
1980-01-06T00:10:57.678477092Z,1.127669,3.116054,7.368156,-0.133291,0.105328,-1.365135
1980-01-06T00:10:57.698349280Z,0.793678,3.207033,7.358579,-0.166581,0.103730,-1.367266
1980-01-06T00:10:57.718232092Z,0.365116,3.278859,7.281964,-0.149004,0.065381,-1.322525
1980-01-06T00:10:57.738097978Z,0.067038,3.274071,7.047333,-0.157526,0.131826,-1.283110
1980-01-06T00:10:57.797752874Z,-0.499191,3.387795,7.483078,-0.311590,0.358727,-1.034904
1980-01-06T00:10:57.817586519Z,-0.354342,3.652355,7.717709,-0.315318,0.317449,-0.961400
1980-01-06T00:10:57.837407457Z,-0.393846,3.810372,7.961918,-0.342882,0.260324,-0.909202
1980-01-06T00:10:57.857295790Z,-0.555455,3.391387,7.703344,-0.267781,0.252601,-0.877245
1980-01-06T00:10:57.877165165Z,-0.806846,3.309984,7.444770,-0.251802,0.265251,-0.835699
1980-01-06T00:10:57.897054384Z,-0.843956,3.512294,7.550115,-0.356064,0.309592,-0.783501
1980-01-06T00:10:57.936764436Z,-1.132457,3.508703,7.775769,-0.481899,0.381764,-0.696682
1980-01-06T00:10:57.976519436Z,-1.379060,3.209427,8.091804,-0.484695,0.167380,-0.590156
1980-01-06T00:10:57.996348394Z,-1.363498,3.041833,8.278551,-0.556334,0.278700,-0.550741
1980-01-06T00:10:58.016226467Z,-1.152808,3.244143,8.312070,-0.579637,0.271775,-0.498543
1980-01-06T00:10:58.036105998Z,-1.114501,3.307590,8.373720,-0.598944,0.245543,-0.440486
1980-01-06T00:10:58.095679748Z,-1.483208,2.888604,9.173384,-0.588958,0.419181,-0.296676
1980-01-06T00:10:58.115555842Z,-1.508347,2.838326,9.628283,-0.585895,0.433562,-0.259392
1980-01-06T00:10:58.135406207Z,-1.626860,2.831144,9.680955,-0.572712,0.380965,-0.247674
1980-01-06T00:10:58.155328759Z,-1.891419,2.713828,9.657013,-0.530634,0.206128,-0.230630
1980-01-06T00:10:58.175190582Z,-2.035071,2.616863,10.016742,-0.596414,0.121174,-0.137419
1980-01-06T00:10:58.195100894Z,-2.073379,2.480393,10.217854,-0.606135,0.277368,-0.046872
1980-01-06T00:10:58.214901988Z,-1.715446,2.315193,10.092757,-0.499342,0.424907,-0.017577
1980-01-06T00:10:58.234812978Z,-1.697489,1.924938,10.332177,-0.411591,0.343681,0.042078
1980-01-06T00:10:58.254661415Z,-1.794454,2.122460,10.427945,-0.455134,0.260324,0.049535
1980-01-06T00:10:58.274515165Z,-1.948880,2.068590,10.174160,-0.479502,0.101999,0.065514
1980-01-06T00:10:58.294465373Z,-2.443283,2.175132,9.398438,-0.418382,-0.091346,0.107059
1980-01-06T00:10:58.314276780Z,-2.445677,2.110489,9.977836,-0.464721,-0.003595,0.202933
1980-01-06T00:10:58.334110738Z,-2.169147,2.183512,10.332177,-0.420646,0.128631,0.346743
1980-01-06T00:10:58.354051571Z,-2.209848,2.124854,11.160571,-0.233293,0.245543,0.436225
1980-01-06T00:10:58.373910686Z,-2.109292,1.549049,9.661801,-0.291882,0.145941,0.549143
1980-01-06T00:10:58.393728134Z,-1.891419,1.352724,10.562021,-0.338754,0.167513,0.608798
1980-01-06T00:10:58.413580686Z,-1.519121,1.532289,10.667366,-0.357396,0.163917,0.589623
1980-01-06T00:10:58.433448550Z,-1.289278,1.740585,10.360908,-0.250071,0.020773,0.565122
1980-01-06T00:10:58.453332144Z,-1.121683,1.247379,10.116699,-0.251269,0.000799,0.622647
1980-01-06T00:10:58.473267040Z,-0.995988,1.254562,10.178948,-0.229964,0.102665,0.605602
1980-01-06T00:10:58.493066884Z,-0.930147,1.426944,9.949105,-0.203066,0.085621,0.592819
1980-01-06T00:10:58.532775269Z,-0.995988,1.499967,10.020931,-0.283493,-0.142080,0.627973
1980-01-06T00:10:58.552633550Z,-1.210269,1.140837,10.036194,-0.210922,-0.141680,0.677508
1980-01-06T00:10:58.572511832Z,-1.179144,0.974440,10.151116,-0.173238,-0.054328,0.725444
1980-01-06T00:10:58.592448030Z,-0.999579,0.830788,10.170270,-0.191481,0.077764,0.724379
1980-01-06T00:10:58.612255061Z,-0.810437,0.778116,10.274716,-0.207993,0.091613,0.725977
1980-01-06T00:10:58.632096311Z,-0.628478,0.381875,10.293870,-0.237421,0.022770,0.734499
1980-01-06T00:10:58.671862873Z,-0.482432,0.357933,10.638636,-0.192147,-0.104130,0.625842
1980-01-06T00:10:58.691745894Z,-0.345962,0.271742,10.442310,-0.187620,-0.158591,0.590689
1980-01-06T00:10:58.711561675Z,-0.296881,0.177171,10.280403,-0.189484,-0.141813,0.614657
1980-01-06T00:10:58.731399800Z,-0.318429,-0.005986,10.241796,-0.188152,0.007590,0.612527
1980-01-06T00:10:58.751320217Z,-0.318429,-0.034716,10.189124,-0.225703,0.171641,0.599743
1980-01-06T00:10:58.771174696Z,-0.132878,-0.077812,10.198701,-0.269911,0.159523,0.613592
1980-01-06T00:10:58.791125738Z,0.310049,-0.341174,10.351930,-0.375239,0.116913,0.586960
1980-01-06T00:10:58.830828342Z,-0.027533,-0.882263,9.642648,-0.344879,0.057524,0.516120
1980-01-06T00:10:58.850632925Z,0.187945,-1.279701,10.226832,-0.393748,0.259392,0.358461
1980-01-06T00:10:58.870625790Z,0.545878,-1.260547,10.715250,-0.436891,0.239018,0.324373
1980-01-06T00:10:58.890372404Z,0.581791,-0.936133,10.758346,-0.344613,0.148604,0.274305
1980-01-06T00:10:58.910263134Z,0.477643,-0.999579,10.552444,-0.148471,0.159790,0.125168
1980-01-06T00:10:58.930098550Z,0.354342,-1.227028,10.289082,-0.072038,0.045274,0.070840
1980-01-06T00:10:58.969834279Z,-0.459687,-1.173159,10.183737,-0.170842,-0.038882,0.019707
1980-01-06T00:10:58.989714175Z,-0.541090,-1.028310,9.838972,-0.180828,0.031958,-0.009055
1980-01-06T00:10:59.009578081Z,-0.484826,-0.717063,9.819818,-0.141281,0.047537,0.004794
1980-01-06T00:10:59.029449644Z,-0.596156,-0.682347,9.886856,-0.068177,0.010786,-0.003728
1980-01-06T00:10:59.049316623Z,-0.726640,-0.712275,9.834184,-0.055793,-0.112518,-0.005859
1980-01-06T00:10:59.069144644Z,-0.963666,-0.790087,9.599552,-0.094409,-0.203332,0.038882
1980-01-06T00:10:59.089137352Z,-1.017536,-0.592565,9.652225,-0.105328,-0.127965,0.048469
1980-01-06T00:10:59.108982300Z,-0.964863,-0.521936,9.499594,-0.084822,-0.041146,0.009587
1980-01-06T00:10:59.128849748Z,-0.958878,-0.484826,9.293693,-0.104130,0.006258,0.021305
1980-01-06T00:10:59.148646206Z,-0.964863,-0.483629,9.532514,-0.099070,0.044608,0.059122
1980-01-06T00:10:59.168613706Z,-0.600945,-0.462081,9.791088,-0.098137,0.045939,0.007989
1980-01-06T00:10:59.188432248Z,-0.566229,-0.517148,9.470264,-0.177633,-0.072971,0.013316
1980-01-06T00:10:59.208330946Z,-0.834379,-0.442927,9.527725,-0.133424,-0.153132,0.027164
1980-01-06T00:10:59.228199436Z,-0.837971,-0.509965,9.417592,-0.092545,-0.090015,0.034621
1980-01-06T00:10:59.248006519Z,-0.723049,-0.410606,9.355343,-0.030360,-0.011452,0.019707
1980-01-06T00:10:59.267875894Z,-0.918176,-0.500388,9.053674,0.001332,-0.007057,0.014381
1980-01-06T00:10:59.287762144Z,-0.913388,-0.489614,9.475053,-0.016512,-0.007590,-0.050600
1980-01-06T00:10:59.307663915Z,-1.001973,-0.305261,9.403227,-0.096806,-0.124370,-0.006924
1980-01-06T00:10:59.327449019Z,-1.043872,-0.355539,9.321824,-0.133025,-0.171374,0.007989
1980-01-06T00:10:59.347340842Z,-1.051055,-0.294487,9.235633,-0.150735,-0.189883,0.026099
1980-01-06T00:10:59.367264852Z,-1.046266,-0.333991,9.547777,-0.155928,-0.234757,0.111853
1980-01-06T00:10:59.387085425Z,-0.928950,-0.738611,9.887753,-0.177500,-0.181494,0.128897
1980-01-06T00:10:59.407005165Z,-0.244209,-0.742203,10.050559,-0.217447,-0.205463,0.042611
1980-01-06T00:10:59.426856206Z,-0.201113,-0.446519,9.915586,-0.268446,-0.417317,0.099602
1980-01-06T00:10:59.446647196Z,-0.310049,-0.263362,10.183737,-0.193612,-0.446745,0.154996
1980-01-06T00:10:59.466587040Z,0.096965,-0.427365,10.600328,-0.016911,-0.317582,0.112385
1980-01-06T00:10:59.486348915Z,0.471658,-0.610521,10.384850,0.051665,-0.328234,0.039947
1980-01-06T00:10:59.506228394Z,0.144849,-0.484826,10.226832,0.062451,-0.500274,0.077232
1980-01-06T00:10:59.526106050Z,-0.357933,-0.942118,9.628283,-0.009587,-0.326636,0.011185
1980-01-06T00:10:59.565822508Z,-1.510741,-2.591723,7.483078,0.411724,-0.310657,-0.261522
1980-01-06T00:10:59.585719435Z,1.323994,-0.282516,11.423933,0.702142,0.016245,-0.056992
1980-01-06T00:10:59.605673446Z,0.216675,-0.147243,8.838196,0.227167,0.014115,-0.103863
1980-01-06T00:10:59.625507717Z,-0.167594,0.329203,10.547656,0.095874,-0.006924,0.005859
1980-01-06T00:10:59.645344644Z,0.047884,-0.086191,10.025720,-0.007191,-0.020639,0.000533
1980-01-06T00:10:59.665203446Z,-0.106542,-0.257377,9.829395,-0.029162,-0.019441,0.016512
1980-01-06T00:10:59.685069540Z,-0.053870,-0.292093,9.676167,-0.014914,-0.012650,0.046339
1980-01-06T00:10:59.724780008Z,-0.130484,-0.341174,9.724051,0.056858,-0.007856,-0.001598
1980-01-06T00:10:59.744660529Z,-0.089783,-0.256180,9.700109,0.064182,-0.012783,-0.010120
1980-01-06T00:10:59.764494175Z,-0.107739,-0.138864,9.786300,0.046206,-0.012916,-0.015446
1980-01-06T00:10:59.784418342Z,-0.033519,-0.094571,9.829395,0.031958,-0.017177,-0.017577
1980-01-06T00:10:59.804244071Z,-0.050278,-0.294487,9.719262,-0.003063,-0.015579,-0.016512
1980-01-06T00:10:59.824118029Z,-0.069432,-0.270545,9.767146,-0.006392,-0.009188,-0.019707
1980-01-06T00:10:59.863832664Z,0.034716,-0.246603,9.618706,0.007723,0.001731,-0.015446
1980-01-06T00:10:59.883686779Z,-0.088585,-0.251391,9.752781,0.025034,-0.004394,-0.016512
1980-01-06T00:10:59.903672977Z,-0.098162,-0.345962,9.671378,0.088417,-0.025433,-0.016512
1980-01-06T00:10:59.923443602Z,-0.081403,-0.028730,9.806351,-0.012783,-0.002663,-0.013848
1980-01-06T00:10:59.943279592Z,-0.080206,-0.167594,9.738416,0.011052,-0.010653,-0.015446
1980-01-06T00:10:59.963256883Z,-0.049081,-0.263362,9.710283,-0.000399,-0.006791,-0.012783
1980-01-06T00:10:59.983047352Z,-0.074220,-0.199916,9.743802,-0.002131,-0.007191,-0.013848
1980-01-06T00:11:00.002919904Z,-0.061052,-0.196325,9.728839,-0.000799,-0.008655,-0.014381
1980-01-06T00:11:00.022844644Z,-0.071826,-0.183156,9.728839,-0.001997,-0.008123,-0.014381
1980-01-06T00:11:00.042704748Z,-0.058658,-0.203507,9.747993,-0.002264,-0.007457,-0.015446
1980-01-06T00:11:00.062520321Z,-0.053870,-0.196325,9.728839,0.002663,-0.007590,-0.014381
1980-01-06T00:11:00.082379644Z,-0.053870,-0.190339,9.719262,-0.000533,-0.008123,-0.014381
1980-01-06T00:11:00.102249019Z,-0.062249,-0.174777,9.738416,-0.002264,-0.007191,-0.014381
1980-01-06T00:11:00.122114279Z,-0.074220,-0.197522,9.744102,-0.001198,-0.006525,-0.013848
1980-01-06T00:11:00.142079383Z,-0.067038,-0.198719,9.734525,-0.001065,-0.007191,-0.013848
1980-01-06T00:11:00.161830269Z,-0.051475,-0.193930,9.734525,-0.001997,-0.008123,-0.013848
1980-01-06T00:11:00.181711102Z,-0.056264,-0.178368,9.735722,-0.001731,-0.007856,-0.014781
1980-01-06T00:11:00.201594852Z,-0.059855,-0.197522,9.738416,-0.001065,-0.007457,-0.014381
1980-01-06T00:11:00.221446623Z,-0.070629,-0.210690,9.738416,-0.001598,-0.007590,-0.014381
1980-01-06T00:11:00.241323602Z,-0.069432,-0.190339,9.728839,-0.001065,-0.007057,-0.015446
1980-01-06T00:11:00.261190216Z,-0.061052,-0.191536,9.728839,-0.001198,-0.008389,-0.015446
1980-01-06T00:11:00.281028862Z,-0.053870,-0.186748,9.724051,-0.000799,-0.007856,-0.014381
1980-01-06T00:11:00.320740946Z,-0.061052,-0.192733,9.734225,-0.000799,-0.007723,-0.013848
1980-01-06T00:11:00.340665060Z,-0.061052,-0.193930,9.724648,-0.000666,-0.008522,-0.013848
1980-01-06T00:11:00.360511154Z,-0.064643,-0.187945,9.734225,-0.000932,-0.007989,-0.013848
1980-01-06T00:11:00.380361206Z,-0.063446,-0.181959,9.734225,0.000266,-0.007856,-0.013848
1980-01-06T00:11:00.400240008Z,-0.064643,-0.192733,9.739014,0.000266,-0.007856,-0.013848
1980-01-06T00:11:00.420126414Z,-0.052672,-0.193930,9.753379,-0.001598,-0.007723,-0.013848
1980-01-06T00:11:00.459855060Z,-0.062249,-0.185551,9.728839,0.000399,-0.008256,-0.014381
1980-01-06T00:11:00.479711570Z,-0.068235,-0.195127,9.733627,-0.000666,-0.008256,-0.014381
1980-01-06T00:11:00.499618914Z,-0.052672,-0.178368,9.733627,-0.001198,-0.007856,-0.014381
1980-01-06T00:11:00.519498862Z,-0.065841,-0.172383,9.733627,-0.000000,-0.007457,-0.015446
1980-01-06T00:11:00.539358445Z,-0.056264,-0.190339,9.781511,-0.001332,-0.007057,-0.015446
1980-01-06T00:11:00.559286883Z,-0.049081,-0.184354,9.747993,-0.001198,-0.007457,-0.015446
1980-01-06T00:11:00.579050581Z,-0.052672,-0.178368,9.714474,-0.000932,-0.008522,-0.015446
1980-01-06T00:11:00.618769956Z,-0.062249,-0.186748,9.733627,-0.002131,-0.006791,-0.014381
1980-01-06T00:11:00.638685997Z,-0.070629,-0.191536,9.733627,-0.002131,-0.007457,-0.015446
1980-01-06T00:11:00.658497404Z,-0.068235,-0.184354,9.733627,-0.000399,-0.007989,-0.014381
1980-01-06T00:11:00.678409383Z,-0.057461,-0.187945,9.724051,-0.001731,-0.007989,-0.014381
1980-01-06T00:11:00.698265997Z,-0.046687,-0.201113,9.715072,-0.001332,-0.006924,-0.012783
1980-01-06T00:11:00.718113862Z,-0.055067,-0.184354,9.724648,-0.001465,-0.007324,-0.013848
1980-01-06T00:11:00.757847091Z,-0.065841,-0.187945,9.714474,-0.002663,-0.008522,-0.014381
1980-01-06T00:11:00.777728758Z,-0.064643,-0.191536,9.733627,-0.002929,-0.008389,-0.014381
1980-01-06T00:11:00.797561935Z,-0.056264,-0.187945,9.728839,-0.003995,-0.007590,-0.014381
1980-01-06T00:11:00.817484435Z,-0.068235,-0.189142,9.724051,-0.002264,-0.007191,-0.014381
1980-01-06T00:11:00.837339539Z,-0.074220,-0.205901,9.690532,-0.001065,-0.006924,-0.014381
1980-01-06T00:11:00.857255320Z,-0.079009,-0.248997,9.589975,0.000399,-0.007989,-0.014381
1980-01-06T00:11:00.877090372Z,-0.046687,-0.175974,9.733627,-0.003595,-0.007856,-0.014381
1980-01-06T00:11:00.916768706Z,-0.047884,-0.146046,9.762358,-0.001997,-0.007723,-0.014381
