timestamp,accel_x,accel_y,accel_z,gyro_x,gyro_y,gyro_z
1980-01-06T00:02:27.491290256Z,-0.081403,-0.173580,9.824607,0.000000,0.000000,-0.000133
1980-01-06T00:02:27.530881974Z,0.007183,-0.166397,9.727043,-0.006392,-0.009854,-0.018642
1980-01-06T00:02:27.550757756Z,0.017957,-0.166397,9.755774,-0.000932,-0.009321,-0.015446
1980-01-06T00:02:27.570639422Z,-0.008380,-0.166397,9.703101,0.000399,-0.007723,-0.013316
1980-01-06T00:02:27.590480204Z,-0.016759,-0.162806,9.746197,-0.000932,-0.008123,-0.014381
1980-01-06T00:02:27.610358277Z,-0.037110,-0.161609,9.770139,-0.004794,-0.008655,-0.013316
1980-01-06T00:02:27.630222131Z,-0.026336,-0.159214,9.730933,-0.003329,-0.008389,-0.013848
1980-01-06T00:02:27.650240412Z,0.021548,-0.173580,9.726145,-0.000266,-0.009321,-0.013848
1980-01-06T00:02:27.669963381Z,0.028730,-0.183156,9.764153,-0.002663,-0.007723,-0.012783
1980-01-06T00:02:27.689819943Z,-0.035913,-0.184354,9.735423,-0.005193,-0.007590,-0.012783
1980-01-06T00:02:27.709721974Z,-0.047884,-0.148441,9.733328,-0.004128,-0.008123,-0.013848
1980-01-06T00:02:27.729603537Z,0.007183,-0.154426,9.786000,-0.000533,-0.007856,-0.013848
1980-01-06T00:02:27.749345412Z,-0.007183,-0.161609,9.747693,-0.002131,-0.008522,-0.014914
1980-01-06T00:02:27.769245256Z,0.031125,-0.164003,9.727941,-0.004128,-0.008922,-0.013316
1980-01-06T00:02:27.789091974Z,-0.022745,-0.165200,9.742306,-0.002131,-0.006791,-0.014381
1980-01-06T00:02:27.829026037Z,-0.047884,-0.169988,9.723152,-0.002264,-0.007457,-0.015446
1980-01-06T00:02:27.848802704Z,0.004788,-0.171185,9.737517,-0.003329,-0.008922,-0.014381
1980-01-06T00:02:27.868657079Z,-0.003591,-0.178368,9.727941,-0.002796,-0.007723,-0.014381
1980-01-06T00:02:27.888543120Z,0.028730,-0.178368,9.718364,-0.002264,-0.006791,-0.014381
1980-01-06T00:02:27.908327703Z,-0.032322,-0.180762,9.727343,-0.003063,-0.008655,-0.014381
1980-01-06T00:02:27.928267078Z,-0.034716,-0.164003,9.760861,-0.002131,-0.007590,-0.014381
1980-01-06T00:02:27.967850724Z,-0.010774,-0.158017,9.736919,-0.002397,-0.007856,-0.014381
1980-01-06T00:02:27.987741818Z,0.009577,-0.174777,9.727343,-0.002530,-0.007723,-0.014381
1980-01-06T00:02:28.047587339Z,-0.031125,-0.168791,9.741708,-0.002929,-0.008123,-0.015446
1980-01-06T00:02:28.067345724Z,-0.004788,-0.177171,9.736919,-0.002397,-0.007856,-0.014381
1980-01-06T00:02:28.087226141Z,0.004788,-0.178368,9.722554,-0.001065,-0.008389,-0.014381
1980-01-06T00:02:28.106947547Z,-0.007183,-0.168791,9.731832,-0.002796,-0.008123,-0.014381
1980-01-06T00:02:28.126933068Z,-0.015562,-0.162806,9.736620,-0.004128,-0.008522,-0.015446
1980-01-06T00:02:28.146849005Z,-0.020351,-0.168791,9.750985,-0.002264,-0.007856,-0.014381
1980-01-06T00:02:28.166706089Z,-0.009577,-0.174777,9.735423,-0.003728,-0.008256,-0.015446
1980-01-06T00:02:28.186581141Z,-0.003591,-0.175974,9.740211,-0.002131,-0.008123,-0.014381
1980-01-06T00:02:28.206597391Z,0.031125,-0.169988,9.732729,-0.003063,-0.008522,-0.015446
1980-01-06T00:02:28.226341558Z,-0.005986,-0.186748,9.747094,-0.015446,-0.005060,-0.014381
1980-01-06T00:02:28.246058797Z,0.005986,-0.241814,9.641749,-0.013848,-0.005060,-0.013316
1980-01-06T00:02:28.266047235Z,-0.003591,-0.269348,9.727941,-0.023303,-0.011851,-0.007989
1980-01-06T00:02:28.285955880Z,-0.029928,-0.217872,9.833285,0.011452,-0.006658,0.017577
1980-01-06T00:02:28.305823901Z,-0.026336,-0.057461,9.785401,0.000533,-0.003196,-0.013316
1980-01-06T00:02:28.325644266Z,0.025139,-0.193930,9.728539,0.009454,-0.006392,-0.008522
1980-01-06T00:02:28.345526245Z,-0.055067,-0.154426,9.762058,0.003063,-0.008256,-0.005326
1980-01-06T00:02:28.365428953Z,-0.080206,-0.146046,9.747693,-0.022504,-0.011984,-0.011718
1980-01-06T00:02:28.385140568Z,-0.013168,-0.213084,9.742306,-0.017577,-0.013582,-0.016512
1980-01-06T00:02:28.405043953Z,-0.059855,-0.257377,9.780613,-0.013848,-0.008522,-0.014381
1980-01-06T00:02:28.425000672Z,0.029928,-0.199916,9.732729,-0.011452,-0.002796,-0.014381
1980-01-06T00:02:28.444865828Z,0.019154,-0.162806,9.723152,-0.000266,-0.002663,-0.015446
1980-01-06T00:02:28.464766453Z,-0.052672,-0.192733,9.761459,0.013582,-0.003862,-0.011185
1980-01-06T00:02:28.484648120Z,-0.007183,-0.219069,9.708787,0.008788,-0.006658,-0.007989
1980-01-06T00:02:28.504512755Z,-0.043096,-0.189142,9.742306,0.021572,-0.005726,-0.009055
1980-01-06T00:02:28.524374943Z,0.004788,-0.150835,9.756671,0.020240,-0.008256,-0.007989
1980-01-06T00:02:28.544241662Z,0.007183,-0.226252,9.737517,0.016911,-0.008788,0.005859
1980-01-06T00:02:28.564119318Z,0.053870,-0.165200,9.752481,0.005992,-0.006392,0.039415
1980-01-06T00:02:28.583853589Z,-0.011971,-0.213084,9.742905,0.014115,-0.003063,0.041545
1980-01-06T00:02:28.603737130Z,-0.002394,-0.172383,9.697414,0.007989,-0.001198,0.052198
1980-01-06T00:02:28.623733849Z,-0.026336,-0.213084,9.735722,0.013449,-0.004661,0.069242
1980-01-06T00:02:28.643605984Z,-0.051475,-0.166397,9.745298,0.031825,-0.006125,0.086286
1980-01-06T00:02:28.663464474Z,0.090980,-0.190339,9.692626,0.055793,-0.005992,0.078829
1980-01-06T00:02:28.683207026Z,-0.077812,-0.166397,9.677363,0.030227,-0.004261,0.091613
1980-01-06T00:02:28.703102651Z,-0.076614,-0.162806,9.725247,0.103730,-0.003995,0.060720
1980-01-06T00:02:28.742804162Z,0.031125,-0.009577,9.715671,0.143944,0.006658,0.044741
1980-01-06T00:02:28.762758693Z,-0.040701,0.128090,9.790789,0.080028,0.008922,0.103331
1980-01-06T00:02:28.782596401Z,0.162806,0.014365,9.800365,0.068843,0.021305,0.042611
1980-01-06T00:02:28.802528484Z,0.128090,0.110133,9.666290,0.111453,-0.013316,0.031958
1980-01-06T00:02:28.822283589Z,-0.208296,0.017957,9.795577,0.099070,0.011318,0.025566
1980-01-06T00:02:28.842173172Z,-0.040701,0.095768,9.790789,0.069908,0.046472,0.041545
1980-01-06T00:02:28.862028797Z,-0.035913,-0.057461,9.690232,0.095874,0.055261,0.024501
1980-01-06T00:02:28.881908536Z,-0.124498,0.039504,9.806650,0.163385,0.052731,0.002131
1980-01-06T00:02:28.901834266Z,-0.223858,0.079009,9.840169,0.149536,0.130495,-0.003196
1980-01-06T00:02:28.921620411Z,-0.095768,0.110133,9.801862,0.160988,0.172573,0.010653
1980-01-06T00:02:28.941536766Z,-0.102951,0.126893,9.844957,0.214251,0.221042,-0.006392
1980-01-06T00:02:28.961361036Z,-0.080206,0.235829,9.747693,0.226502,0.252467,-0.005326
1980-01-06T00:02:28.981272130Z,-0.087388,0.186748,9.627983,0.215716,0.215982,-0.005326
1980-01-06T00:02:29.001216088Z,-0.004788,0.266953,9.754875,0.202666,0.152333,-0.025566
1980-01-06T00:02:29.021008276Z,-0.178368,0.197522,9.677363,0.129296,0.135155,-0.033023
1980-01-06T00:02:29.040851922Z,-0.384269,0.277727,9.758766,0.076433,0.107059,-0.010653
1980-01-06T00:02:29.060701505Z,-0.275333,0.304064,9.926360,0.042344,0.068710,-0.006392
1980-01-06T00:02:29.080659526Z,-0.319626,0.284910,9.826403,0.042078,0.059122,-0.025566
1980-01-06T00:02:29.100447911Z,-0.313640,0.278924,9.644443,0.019042,0.014914,-0.014914
1980-01-06T00:02:29.120326661Z,-0.366313,0.350751,9.663596,0.018509,-0.014914,-0.012783
1980-01-06T00:02:29.140221557Z,-0.359130,0.289698,9.768942,0.022504,0.007856,-0.031958
1980-01-06T00:02:29.160051505Z,-0.427365,0.335188,9.768942,0.026765,0.053130,-0.047937
1980-01-06T00:02:29.199856193Z,-0.296881,0.368707,9.856629,0.011318,-0.018109,-0.046339
1980-01-06T00:02:29.219750047Z,-0.356736,0.445322,9.914090,0.064981,-0.012650,-0.066579
1980-01-06T00:02:29.239537182Z,-0.257377,0.320823,9.717766,0.085088,-0.009854,-0.097472
1980-01-06T00:02:29.259430568Z,-0.356736,0.362722,9.677961,0.061386,-0.016512,-0.086286
1980-01-06T00:02:29.279371505Z,-0.377087,0.331597,9.687539,0.044075,0.046339,-0.080960
1980-01-06T00:02:29.299135828Z,-0.323217,0.381875,9.692327,0.027031,0.098004,-0.103331
1980-01-06T00:02:29.319042234Z,-0.150835,0.475249,9.874287,0.033289,0.010786,-0.092678
1980-01-06T00:02:29.338959318Z,-0.262165,0.486023,9.874287,0.065381,-0.055394,-0.100135
1980-01-06T00:02:29.358740515Z,-0.374693,0.384269,9.706693,0.100934,-0.003728,-0.128897
1980-01-06T00:02:29.378613849Z,-0.336385,0.351948,9.757270,0.060454,0.014381,-0.122505
1980-01-06T00:02:29.398527078Z,-0.268151,0.477643,9.845556,0.036485,-0.062318,-0.102265
1980-01-06T00:02:29.418430307Z,-0.316035,0.468066,9.740211,0.061519,-0.041013,-0.132093
1980-01-06T00:02:29.438240567Z,-0.396240,0.408211,9.591770,0.078031,0.003995,-0.154463
1980-01-06T00:02:29.458091036Z,-0.320823,0.452504,9.615712,0.037417,0.027297,-0.143811
1980-01-06T00:02:29.497957963Z,-0.272939,0.488417,9.658808,0.014381,-0.049668,-0.159790
1980-01-06T00:02:29.517770567Z,-0.402226,0.520739,9.679159,0.022504,-0.041945,-0.163518
1980-01-06T00:02:29.537643953Z,-0.345962,0.492008,9.698313,0.024634,0.017577,-0.182693
1980-01-06T00:02:29.557471140Z,-0.343568,0.488417,9.703101,0.019974,0.003196,-0.175236
1980-01-06T00:02:29.577342651Z,-0.393846,0.410606,9.631275,0.009987,-0.003329,-0.188019
1980-01-06T00:02:29.597265255Z,-0.304064,0.688333,9.664794,0.019441,0.010653,-0.246609
1980-01-06T00:02:29.617152026Z,-0.507571,0.606930,9.808446,0.012650,-0.014914,-0.207194
1980-01-06T00:02:29.636999213Z,-0.441730,0.584185,9.736620,0.063516,-0.006125,-0.217846
1980-01-06T00:02:29.656838797Z,-0.508768,0.519542,9.669582,0.031558,-0.007989,-0.191215
1980-01-06T00:02:29.676688692Z,-0.509965,0.580594,9.679159,0.010653,0.032624,-0.191215
1980-01-06T00:02:29.696649317Z,-0.435745,0.610521,9.818023,0.023702,0.012650,-0.200802
1980-01-06T00:02:29.716383172Z,-0.507571,0.653617,9.937733,0.023303,-0.036618,-0.185888
1980-01-06T00:02:29.736344526Z,-0.520739,0.567426,9.774927,0.050733,-0.014647,-0.193345
1980-01-06T00:02:29.756146974Z,-0.468066,0.568623,9.760562,0.060454,0.017444,-0.205063
1980-01-06T00:02:29.776024734Z,-0.341174,0.673968,9.893440,0.040879,-0.041279,-0.186421
1980-01-06T00:02:29.795881036Z,-0.381875,0.641646,9.865907,0.037551,-0.075634,-0.183758
1980-01-06T00:02:29.815819422Z,-0.393846,0.667982,9.707890,0.054462,-0.017044,-0.200802
1980-01-06T00:02:29.835635828Z,-0.396240,0.735020,9.731832,0.071106,0.032624,-0.203998
1980-01-06T00:02:29.855519005Z,-0.436942,0.539892,9.541792,-0.015846,-0.020506,-0.167246
1980-01-06T00:02:29.875434994Z,-0.421380,0.678756,9.695021,0.013183,-0.075234,-0.192813
1980-01-06T00:02:29.895238171Z,-0.616507,0.634463,9.695021,0.041146,-0.072172,-0.187486
1980-01-06T00:02:29.915112755Z,-0.523133,0.609324,9.690232,0.097472,0.015180,-0.215183
1980-01-06T00:02:29.954858849Z,-0.451307,0.633266,9.493908,0.081626,-0.040613,-0.204531
1980-01-06T00:02:29.974724786Z,-0.409408,0.660800,9.522638,0.039947,0.022237,-0.230097
1980-01-06T00:02:29.994574942Z,-0.442927,0.699107,9.350255,0.030759,0.036086,-0.217314
1980-01-06T00:02:30.014471505Z,-0.190339,0.615310,9.647137,0.083224,-0.020506,-0.270577
1980-01-06T00:02:30.034322703Z,-0.302867,0.333991,9.551369,-0.075234,-0.115448,-0.170442
1980-01-06T00:02:30.054189526Z,-0.338780,0.636858,9.781212,-0.004661,-0.040746,-0.219444
1980-01-06T00:02:30.074069578Z,-0.193930,0.500388,9.613618,0.052331,0.039548,-0.252467
1980-01-06T00:02:30.113882598Z,-0.130484,0.623690,9.752481,-0.011185,-0.001731,-0.260990
1980-01-06T00:02:30.133705515Z,-0.184354,0.210690,9.618406,0.027031,-0.035819,-0.296143
1980-01-06T00:02:30.153641140Z,-0.606930,0.814029,10.169072,0.113051,-0.037151,-0.273773
1980-01-06T00:02:30.173423119Z,-0.391452,0.685939,10.312724,0.003063,-0.015579,-0.307861
1980-01-06T00:02:30.193276192Z,-0.480037,0.769736,9.977536,0.060054,-0.037417,-0.286556
1980-01-06T00:02:30.213232286Z,-0.439336,0.713472,10.025420,0.112518,0.033822,-0.319579
1980-01-06T00:02:30.233020932Z,-0.368707,0.657208,9.848249,0.086020,0.016245,-0.292947
1980-01-06T00:02:30.252876765Z,-0.489614,0.774524,9.989208,0.083490,0.001332,-0.296676
1980-01-06T00:02:30.272772598Z,-0.524330,0.803255,9.869498,0.105461,-0.007989,-0.295611
1980-01-06T00:02:30.292724109Z,-0.462081,0.792481,9.812037,0.114383,-0.014781,-0.280697
1980-01-06T00:02:30.312522182Z,-0.416591,0.915782,10.013150,0.108391,0.000399,-0.282827
1980-01-06T00:02:30.332430307Z,-0.337582,0.826000,9.898229,0.105461,-0.046605,-0.275371
1980-01-06T00:02:30.352226244Z,-0.314838,0.951695,9.953594,0.090947,-0.084422,-0.274838
1980-01-06T00:02:30.372106453Z,-0.417788,1.012747,9.926959,0.139816,-0.070307,-0.282295
1980-01-06T00:02:30.411917338Z,-0.603339,0.848745,9.754577,0.134356,0.011585,-0.247141
1980-01-06T00:02:30.431708067Z,-0.531513,1.080982,10.094553,0.133557,0.037284,-0.296143
1980-01-06T00:02:30.451662755Z,-0.677559,0.994791,9.649231,0.118511,-0.068576,-0.258859
1980-01-06T00:02:30.471530671Z,-0.723049,1.027112,9.650429,0.115182,-0.098803,-0.253000
1980-01-06T00:02:30.491347859Z,-0.831985,1.139640,9.779716,0.100534,-0.060853,-0.227434
1980-01-06T00:02:30.511176296Z,-0.700304,1.095347,9.664794,0.139949,-0.026232,-0.226369
1980-01-06T00:02:30.531129213Z,-0.724246,1.195904,9.755774,0.136886,-0.063649,-0.214651
1980-01-06T00:02:30.570888796Z,-0.689530,1.180341,9.774927,0.150868,0.007989,-0.205063
1980-01-06T00:02:30.590673327Z,-0.667982,1.186327,9.794081,0.180163,0.041146,-0.192280
1980-01-06T00:02:30.610576036Z,-0.544681,1.212663,9.880272,0.166714,-0.025034,-0.198672
1980-01-06T00:02:30.630429317Z,-0.545878,1.173159,9.679159,0.181627,-0.103331,-0.194411
1980-01-06T00:02:30.650346765Z,-0.609324,1.329979,9.626487,0.188418,-0.042611,-0.203998
1980-01-06T00:02:30.670175723Z,-0.569820,1.270124,9.430161,0.196541,0.046073,-0.213585
1980-01-06T00:02:30.690053067Z,-0.453701,1.327585,9.478046,0.156727,0.067511,-0.206128
1980-01-06T00:02:30.709871296Z,-0.353145,1.418565,9.636064,0.140348,0.016378,-0.203998
1980-01-06T00:02:30.729751505Z,-0.518345,1.418565,9.569026,0.159523,-0.059388,-0.210390
1980-01-06T00:02:30.749615098Z,-0.616507,1.345541,9.492412,0.157526,-0.058856,-0.201867
1980-01-06T00:02:30.769561817Z,-0.600945,1.419762,9.631275,0.141547,-0.041412,-0.189084
1980-01-06T00:02:30.789360879Z,-0.644040,1.521515,9.591770,0.152599,-0.053796,-0.174703
1980-01-06T00:02:30.809254838Z,-0.614113,1.446098,9.541792,0.137818,-0.059522,-0.164051
1980-01-06T00:02:30.829154942Z,-0.664391,1.424550,9.656713,0.131693,-0.082158,-0.151267
1980-01-06T00:02:30.868832598Z,-0.511162,1.434127,9.635165,0.092678,-0.101200,-0.134223
1980-01-06T00:02:30.888815984Z,-0.481235,1.519121,9.795577,0.099336,-0.062584,-0.134223
1980-01-06T00:02:30.908653275Z,-0.439336,1.600524,9.780613,0.141946,0.023569,-0.151800
1980-01-06T00:02:30.928428275Z,-0.445322,1.543063,9.675268,0.186554,0.080694,-0.168844
1980-01-06T00:02:30.948296088Z,-0.216675,1.531092,9.778519,0.174703,0.016911,-0.172573
1980-01-06T00:02:30.968210046Z,-0.289698,1.657985,9.677961,0.146873,-0.070707,-0.180030
1980-01-06T00:02:30.988070098Z,-0.368707,1.653196,9.486425,0.162719,-0.090814,-0.187486
1980-01-06T00:02:31.007954473Z,-0.256180,1.640028,9.620501,0.127432,-0.029694,-0.200270
1980-01-06T00:02:31.027850411Z,-0.213084,1.775301,9.725846,0.220776,-0.017177,-0.232227
1980-01-06T00:02:31.047681504Z,-0.356736,1.751359,9.711481,0.208259,-0.027830,-0.254598
1980-01-06T00:02:31.067515202Z,-0.325611,1.765724,9.685444,0.242614,-0.140482,-0.257794
1980-01-06T00:02:31.087443536Z,-0.503979,1.886631,9.580099,0.219711,-0.203066,-0.252467
1980-01-06T00:02:31.107279942Z,-0.633266,1.879448,9.527427,0.233426,-0.159923,-0.251402
1980-01-06T00:02:31.127150879Z,-0.605733,1.892616,9.201815,0.301203,-0.084955,-0.251402
1980-01-06T00:02:31.147114942Z,-0.286107,1.980005,10.681432,0.289885,-0.078164,-0.280164
1980-01-06T00:02:31.166932911Z,-0.567426,2.330755,10.673351,0.054328,-0.130761,-0.191747
1980-01-06T00:02:31.186831713Z,-0.426168,2.122460,9.576807,0.047404,-0.113051,-0.149137
1980-01-06T00:02:31.206639004Z,-0.488417,2.059013,9.519346,0.094276,-0.077897,-0.186421
1980-01-06T00:02:31.226463119Z,-0.600945,2.176329,9.509769,0.213718,-0.078164,-0.187486
1980-01-06T00:02:31.246366817Z,-0.646434,2.059013,9.461885,0.242880,-0.066446,-0.203465
1980-01-06T00:02:31.266294681Z,-0.592565,2.130840,9.361329,0.208925,-0.060187,-0.213053
1980-01-06T00:02:31.286109733Z,-0.512359,2.173935,9.509769,0.128764,-0.086286,-0.192813
1980-01-06T00:02:31.325839733Z,-0.519542,2.267309,9.533711,0.089482,-0.063516,-0.194943
1980-01-06T00:02:31.345709838Z,-0.591368,2.148796,9.246407,0.192546,-0.072438,-0.210922
1980-01-06T00:02:31.365698431Z,-0.531513,2.371457,9.676465,0.225570,-0.063783,-0.208259
1980-01-06T00:02:31.385436504Z,-0.612916,2.266112,9.620501,0.118111,-0.091480,-0.159790
1980-01-06T00:02:31.405350983Z,-0.509965,2.298434,9.754577,0.007457,-0.054195,-0.149137
1980-01-06T00:02:31.425200671Z,-0.492008,2.495955,9.615712,0.039148,-0.006658,-0.152333
1980-01-06T00:02:31.445059056Z,-0.608127,2.451663,9.505579,0.002264,0.022237,-0.137419
1980-01-06T00:02:31.484895463Z,-0.539892,2.443283,9.684845,0.090148,-0.014115,-0.140082
1980-01-06T00:02:31.504667285Z,-0.659603,2.317587,9.531616,0.083357,-0.115581,-0.114516
1980-01-06T00:02:31.524544994Z,-0.641646,2.448071,9.392753,0.065647,-0.073636,-0.119842
1980-01-06T00:02:31.544427442Z,-0.622492,2.463634,9.316736,0.054994,-0.033556,-0.090547
1980-01-06T00:02:31.564397494Z,-0.690727,2.443283,9.378986,0.022770,-0.004261,-0.064981
1980-01-06T00:02:31.584294942Z,-0.629675,2.531868,9.585485,-0.009721,-0.024901,-0.028229
1980-01-06T00:02:31.604020723Z,-0.468066,2.472013,9.561543,-0.011052,-0.066978,-0.020773
1980-01-06T00:02:31.623895410Z,-0.293290,2.308010,9.547178,-0.044475,-0.134090,0.014381
1980-01-06T00:02:31.643798171Z,-0.035913,2.327164,9.781811,-0.070707,-0.096939,-0.017577
1980-01-06T00:02:31.663735410Z,-0.146046,2.388216,9.585485,-0.087618,-0.084289,0.007989
1980-01-06T00:02:31.683512181Z,-0.266953,2.226608,9.690830,-0.083091,-0.110654,0.015446
1980-01-06T00:02:31.703426035Z,-0.328006,2.312799,9.791388,-0.072305,-0.106926,0.012251
1980-01-06T00:02:31.723311244Z,-0.347159,2.345121,9.753080,-0.010120,-0.111720,0.019707
1980-01-06T00:02:31.743103379Z,-0.305261,2.202666,9.514558,0.037684,-0.050467,-0.001065
1980-01-06T00:02:31.782850775Z,-0.167594,2.317587,9.677961,-0.008655,-0.030626,0.029827
1980-01-06T00:02:31.802711244Z,-0.090980,2.394202,9.785401,0.030094,-0.076832,0.002663
1980-01-06T00:02:31.822698952Z,-0.051475,2.507926,9.699210,0.103597,-0.160722,-0.023968
1980-01-06T00:02:31.842491400Z,-0.252588,2.243367,9.651326,0.131161,-0.215050,-0.026099
1980-01-06T00:02:31.862423848Z,-0.357933,2.450465,9.431060,0.090947,-0.134356,-0.046339
1980-01-06T00:02:31.882313379Z,-0.429759,2.475605,9.555558,0.071772,-0.109589,-0.014381
1980-01-06T00:02:31.902085410Z,-0.362722,2.584541,9.509769,0.107192,-0.086686,-0.020240
1980-01-06T00:02:31.941904056Z,-0.374693,2.596512,9.648633,0.134223,-0.136753,-0.013848
1980-01-06T00:02:31.961726452Z,-0.351948,2.616863,9.548077,0.148737,-0.122638,0.003196
1980-01-06T00:02:31.981591244Z,-0.271742,2.717419,9.552865,0.147672,-0.109855,0.024501
1980-01-06T00:02:32.001445306Z,-0.274136,2.760514,9.461885,0.138884,-0.105861,0.053263
1980-01-06T00:02:32.021315462Z,-0.250194,2.600103,9.495404,0.099203,-0.073770,0.058589
1980-01-06T00:02:32.041142181Z,-0.169988,2.758120,9.505280,0.078696,-0.103197,0.054861
1980-01-06T00:02:32.061024681Z,-0.238223,2.837129,9.496002,0.084555,-0.166048,0.050067
1980-01-06T00:02:32.100795931Z,-0.238223,2.786851,9.304466,0.098936,-0.220909,0.083091
1980-01-06T00:02:32.120723379Z,-0.254982,2.749741,9.160814,0.059522,-0.172040,0.108657
1980-01-06T00:02:32.140574316Z,-0.211887,2.742558,9.160814,0.015713,-0.096140,0.152333
1980-01-06T00:02:32.160423483Z,-0.094571,2.833538,9.136872,0.005992,-0.023702,0.186421
1980-01-06T00:02:32.180358639Z,0.051475,2.841918,9.498696,-0.017976,-0.016911,0.192813
1980-01-06T00:02:32.200094004Z,0.211887,2.837129,9.274240,0.027697,-0.022104,0.169910
1980-01-06T00:02:32.239876504Z,0.201113,2.792836,9.275137,0.030626,-0.083224,0.155528
1980-01-06T00:02:32.259827025Z,0.203507,2.723404,8.944737,0.020639,-0.026099,0.142745
1980-01-06T00:02:32.279669525Z,0.263362,2.838326,9.026140,-0.002397,-0.018908,0.172573
1980-01-06T00:02:32.299446087Z,0.125696,2.827552,9.093178,-0.050201,0.005859,0.214118
1980-01-06T00:02:32.319334941Z,0.238223,2.914941,9.318233,-0.081626,0.060986,0.238619
1980-01-06T00:02:32.339187077Z,0.292093,2.756923,9.409213,-0.053263,0.088550,0.258859
1980-01-06T00:02:32.359158796Z,0.323217,2.663549,9.342175,-0.043010,0.112918,0.215183
1980-01-06T00:02:32.398801296Z,0.392649,2.755726,9.399636,-0.046605,-0.135288,0.184291
1980-01-06T00:02:32.418756243Z,0.314838,2.780865,9.179369,-0.009587,-0.110521,0.147006
1980-01-06T00:02:32.438609941Z,0.320823,2.896984,9.352350,-0.001731,-0.063383,0.172040
1980-01-06T00:02:32.458553483Z,0.220267,2.705448,9.194333,0.009854,0.053663,0.196541
1980-01-06T00:02:32.478343796Z,0.161609,2.734178,9.294889,0.017044,0.186821,0.209324
1980-01-06T00:02:32.498165723Z,0.262165,2.804807,9.428965,0.037151,0.188152,0.202933
1980-01-06T00:02:32.518075254Z,0.284910,2.687491,9.381081,0.061785,0.091879,0.170975
1980-01-06T00:02:32.557842806Z,0.214281,2.606089,9.352350,-0.011185,-0.151800,0.125701
1980-01-06T00:02:32.577649056Z,0.140061,2.663549,9.400234,-0.047271,-0.193878,0.140615
1980-01-06T00:02:32.597521920Z,0.123301,2.794033,9.479543,-0.002796,-0.131294,0.159790
1980-01-06T00:02:32.617507545Z,0.184354,2.643199,9.240122,0.070174,-0.047804,0.177899
1980-01-06T00:02:32.637338170Z,0.373495,2.691083,9.292794,0.074302,-0.011718,0.202400
1980-01-06T00:02:32.657180566Z,0.383072,2.783259,9.273641,0.054728,0.019707,0.211987
1980-01-06T00:02:32.677060879Z,0.489614,2.731784,9.120412,0.109190,0.001198,0.211987
1980-01-06T00:02:32.696954056Z,0.577003,2.638410,9.082105,0.121307,-0.001864,0.185356
1980-01-06T00:02:32.716873327Z,0.641646,2.867057,9.422082,0.101999,-0.040480,0.175768
1980-01-06T00:02:32.736558066Z,0.572214,2.867057,9.184756,0.135821,-0.080028,0.159790
1980-01-06T00:02:32.756578014Z,0.495600,2.723404,8.701127,0.228366,-0.083889,0.106526
1980-01-06T00:02:32.776405879Z,0.581791,2.753332,8.610147,0.282029,-0.119709,0.071373
1980-01-06T00:02:32.796218587Z,0.604536,2.758120,9.117120,0.093211,-0.099336,0.058589
1980-01-06T00:02:32.816073483Z,0.523133,2.880225,9.346964,-0.202933,-0.008922,0.094808
1980-01-06T00:02:32.855908952Z,0.386664,2.817975,8.873510,0.080960,0.115448,0.158724
1980-01-06T00:02:32.875779420Z,0.586579,2.901772,8.791808,0.347276,0.078430,0.165648
1980-01-06T00:02:32.895546972Z,0.523133,2.731784,8.590695,0.190682,0.045274,0.168844
1980-01-06T00:02:32.915451347Z,0.521936,2.705448,8.514080,0.186821,-0.056858,0.135821
1980-01-06T00:02:32.935363014Z,0.526724,2.980781,9.045593,0.038349,-0.101333,0.127299
1980-01-06T00:02:32.955287597Z,0.476446,3.101688,9.318532,-0.065780,-0.078696,0.150735
1980-01-06T00:02:32.975093483Z,0.465672,3.124433,9.314043,-0.085088,0.001598,0.166181
1980-01-06T00:02:33.014827649Z,0.691924,3.010709,9.237429,0.001598,0.029827,0.202400
1980-01-06T00:02:33.034676295Z,0.720655,2.815581,9.012374,0.046738,0.007057,0.193878
1980-01-06T00:02:33.054604993Z,0.784101,2.778471,8.993220,-0.003995,-0.003595,0.177899
1980-01-06T00:02:33.074466295Z,0.884658,2.986767,9.256582,-0.053396,-0.037284,0.180030
1980-01-06T00:02:33.094260670Z,0.916979,3.046622,9.201217,-0.018509,-0.050600,0.165648
1980-01-06T00:02:33.114121243Z,0.949301,2.905364,9.071930,0.030893,-0.069508,0.145408
1980-01-06T00:02:33.134009264Z,1.019930,2.844312,9.024046,-0.020240,-0.067644,0.126234
1980-01-06T00:02:33.153951087Z,1.019930,2.844312,9.106047,-0.075767,-0.092944,0.123571
1980-01-06T00:02:33.173711868Z,0.987608,2.858677,9.153931,-0.062185,-0.108391,0.111853
1980-01-06T00:02:33.193639420Z,0.973243,2.850297,9.076718,-0.022504,-0.109190,0.085754
1980-01-06T00:02:33.213527597Z,0.905008,2.729390,9.129391,-0.031425,-0.147140,0.092145
1980-01-06T00:02:33.233362441Z,0.963666,2.731784,9.028834,-0.045274,-0.099602,0.090015
1980-01-06T00:02:33.253205306Z,0.957681,2.797625,9.119814,-0.053263,-0.061785,0.123038
1980-01-06T00:02:33.273091920Z,0.954089,2.817975,9.110237,-0.021438,0.026365,0.135821
1980-01-06T00:02:33.312806816Z,1.039083,2.847903,9.172486,0.011318,0.028096,0.141147
1980-01-06T00:02:33.332667389Z,1.040281,2.746149,9.105449,0.015313,-0.009987,0.099602
1980-01-06T00:02:33.352551087Z,1.110910,2.750938,9.162910,-0.026099,-0.067777,0.077232
1980-01-06T00:02:33.372476660Z,1.051055,2.850297,9.261371,-0.061785,-0.062185,0.078829
1980-01-06T00:02:33.392332649Z,0.952892,2.892196,9.285313,-0.044608,-0.003595,0.089482
1980-01-06T00:02:33.412304628Z,0.889446,2.847903,9.237429,-0.010253,0.048469,0.094808
1980-01-06T00:02:33.432000097Z,0.882263,2.820370,9.390657,-0.015047,0.054062,0.100135
1980-01-06T00:02:33.471823639Z,0.736217,2.756923,9.326912,-0.008922,-0.006658,0.098537
1980-01-06T00:02:33.491720722Z,0.641646,2.730587,9.322124,-0.012251,-0.012650,0.113451
1980-01-06T00:02:33.511483899Z,0.679953,2.753332,9.355642,0.003995,0.037817,0.139017
1980-01-06T00:02:33.531366347Z,0.731429,2.870648,9.408315,0.036885,0.082824,0.161387
1980-01-06T00:02:33.551235774Z,0.755371,2.817975,9.235932,0.090947,0.092412,0.176301
1980-01-06T00:02:33.571183431Z,0.727837,2.712631,9.144953,0.083889,0.076033,0.178432
1980-01-06T00:02:33.610835410Z,0.670376,2.861071,9.168895,0.035953,0.022237,0.188019
1980-01-06T00:02:33.630713014Z,0.653617,2.923320,9.201815,0.058856,-0.011585,0.198139
1980-01-06T00:02:33.650680253Z,0.656011,2.896984,9.048586,0.091746,0.019441,0.210922
1980-01-06T00:02:33.670517441Z,0.796072,2.938883,8.933664,0.094942,0.076832,0.224771
1980-01-06T00:02:33.690399420Z,0.843956,2.925714,8.900146,0.096540,0.089349,0.258859
1980-01-06T00:02:33.710281295Z,0.956484,3.046622,8.861838,0.083357,0.168578,0.257794
1980-01-06T00:02:33.730154733Z,0.994791,3.148375,8.933664,0.067644,0.183492,0.276969
1980-01-06T00:02:33.769785774Z,1.015141,2.955642,9.153931,0.074036,0.160855,0.269512
1980-01-06T00:02:33.789698587Z,1.073799,2.967613,9.149142,0.065780,0.148871,0.232227
1980-01-06T00:02:33.809558118Z,1.060631,2.941277,9.101258,0.048203,0.097205,0.213053
1980-01-06T00:02:33.829448222Z,1.012747,2.979584,9.177873,0.040081,0.079362,0.210922
1980-01-06T00:02:33.849367337Z,0.890643,3.187880,9.220968,0.070574,0.098537,0.226901
1980-01-06T00:02:33.869247649Z,0.890643,3.373430,9.039009,0.121973,0.141014,0.214118
1980-01-06T00:02:33.889165097Z,0.920571,3.246537,8.824130,0.122505,0.145142,0.194411
1980-01-06T00:02:33.928780149Z,0.785298,3.043030,8.897452,-0.013848,0.049934,0.193878
1980-01-06T00:02:33.948750045Z,0.709881,3.112462,9.086295,-0.065913,0.051798,0.217846
1980-01-06T00:02:33.968649680Z,0.697910,3.065775,9.263466,-0.067777,0.110654,0.228499
1980-01-06T00:02:33.988376972Z,0.737414,3.033453,9.244312,-0.043543,0.106127,0.234891
1980-01-06T00:02:34.008241920Z,0.776918,2.592921,9.359234,-0.051399,0.065247,0.213585
1980-01-06T00:02:34.028169576Z,0.802058,2.715025,9.546580,-0.089083,-0.015979,0.202400
1980-01-06T00:02:34.067925201Z,0.760159,2.665944,9.479543,-0.025966,-0.043409,0.188552
1980-01-06T00:02:34.087724784Z,0.776918,2.710236,9.407717,-0.021838,-0.014115,0.190682
1980-01-06T00:02:34.107682076Z,0.812831,2.715025,9.393352,-0.009454,-0.023835,0.218379
1980-01-06T00:02:34.127504003Z,0.870292,2.712631,9.355043,-0.001065,0.018109,0.220510
1980-01-06T00:02:34.147465045Z,0.895431,2.707842,9.321525,0.015047,0.006258,0.249272
1980-01-06T00:02:34.167191712Z,0.913388,2.665944,9.139565,0.032757,0.022371,0.238619
1980-01-06T00:02:34.187076712Z,1.012747,2.715025,9.053374,0.013848,0.011984,0.235423
1980-01-06T00:02:34.206940774Z,1.023521,2.747346,9.120412,0.013582,0.009987,0.236489
1980-01-06T00:02:34.226836295Z,0.988805,2.791639,9.062951,0.055926,0.023169,0.246076
1980-01-06T00:02:34.246684941Z,0.962469,2.707842,8.952818,0.083889,0.083357,0.251402
1980-01-06T00:02:34.266653482Z,0.982820,2.767697,8.890569,0.065114,0.107858,0.258859
1980-01-06T00:02:34.286504472Z,0.948104,2.876633,8.924088,0.059522,0.075234,0.274838
1980-01-06T00:02:34.306284680Z,0.919373,2.808398,8.924088,0.059655,0.076433,0.280164
1980-01-06T00:02:34.326145357Z,1.004368,2.834735,8.995914,0.040214,0.085221,0.270577
1980-01-06T00:02:34.346029836Z,1.051055,2.820370,8.914511,0.015446,0.060986,0.263120
1980-01-06T00:02:34.365892857Z,1.051055,2.826355,9.065346,-0.018642,0.002796,0.258859
1980-01-06T00:02:34.385797493Z,1.074997,2.797625,9.151537,-0.030227,-0.012251,0.236489
1980-01-06T00:02:34.405782857Z,1.013944,2.816778,9.218575,-0.010120,-0.040081,0.232227
1980-01-06T00:02:34.425562961Z,1.010353,2.722207,9.122807,-0.002796,-0.008256,0.235423
1980-01-06T00:02:34.445465461Z,1.086968,2.765303,9.012673,-0.003728,0.026898,0.246076
1980-01-06T00:02:34.465232753Z,1.092953,2.724602,8.983943,-0.004794,0.046738,0.253533
1980-01-06T00:02:34.485169420Z,1.116895,2.797625,9.098865,-0.025300,0.045141,0.270577
1980-01-06T00:02:34.524831659Z,1.229423,2.815581,8.971373,-0.010120,0.044874,0.232760
1980-01-06T00:02:34.544730513Z,1.230620,2.783259,9.019258,-0.045141,0.012117,0.230630
1980-01-06T00:02:34.564587753Z,1.215057,2.668338,9.091084,-0.065247,0.001997,0.218912
1980-01-06T00:02:34.584538378Z,1.139640,2.665944,9.270349,-0.064182,-0.002663,0.237554
1980-01-06T00:02:34.604418430Z,1.171962,2.741361,9.232041,-0.038616,0.056193,0.233293
1980-01-06T00:02:34.624187805Z,1.252167,2.657564,9.155427,-0.003063,0.050866,0.234358
1980-01-06T00:02:34.644067909Z,1.210269,2.603694,9.208099,-0.021971,0.040081,0.230097
1980-01-06T00:02:34.683888482Z,1.204283,2.776077,9.208099,-0.031825,0.030094,0.216248
1980-01-06T00:02:34.703752545Z,1.113304,2.675520,9.150639,-0.015047,-0.000266,0.206661
1980-01-06T00:02:34.723518899Z,1.054646,2.604892,9.188946,-0.025833,-0.034621,0.213053
1980-01-06T00:02:34.743455930Z,0.962469,2.513912,9.251195,-0.037417,-0.019574,0.234358
1980-01-06T00:02:34.763393482Z,1.077391,2.568978,9.255983,-0.027431,0.015047,0.240750
1980-01-06T00:02:34.783172493Z,1.149217,2.438494,9.241618,-0.027963,-0.008522,0.236489
1980-01-06T00:02:34.822869993Z,1.007959,2.577358,9.213487,-0.009055,-0.017710,0.280164
1980-01-06T00:02:34.842810878Z,1.116895,2.603694,9.127295,0.018376,0.065913,0.284425
1980-01-06T00:02:34.862687649Z,1.159991,2.533065,9.010279,0.056059,0.091746,0.307861
1980-01-06T00:02:34.882527805Z,1.217452,2.427721,9.045294,0.037151,0.127698,0.323840
1980-01-06T00:02:34.902389784Z,1.285686,2.699462,9.174581,0.006791,0.154330,0.327036
1980-01-06T00:02:34.922227024Z,1.327585,2.718616,9.169792,0.016911,0.099203,0.317449
1980-01-06T00:02:34.942199263Z,1.412579,2.521094,9.174581,0.008788,0.059388,0.269512
1980-01-06T00:02:34.981940149Z,1.347936,2.537854,9.193734,-0.052731,-0.003728,0.270577
1980-01-06T00:02:35.001710826Z,1.246182,2.552219,9.165004,-0.046073,0.000799,0.287621
1980-01-06T00:02:35.021598482Z,1.216254,2.487576,9.308656,-0.034887,0.031692,0.288686
1980-01-06T00:02:35.041449940Z,1.315614,2.503138,9.308656,-0.002397,0.041279,0.287621
1980-01-06T00:02:35.061487545Z,1.276109,2.406173,9.198523,0.014115,0.031292,0.270577
1980-01-06T00:02:35.081161451Z,1.252167,2.415750,9.129989,-0.003462,0.018908,0.258859
1980-01-06T00:02:35.101076920Z,1.171962,2.512715,9.106047,-0.026365,0.015047,0.305731
1980-01-06T00:02:35.140834159Z,1.359907,2.482787,9.072528,-0.002929,0.163518,0.338754
1980-01-06T00:02:35.160771399Z,1.449689,2.521094,9.243414,-0.035953,0.119576,0.319046
1980-01-06T00:02:35.180589419Z,1.404199,2.561796,9.363124,-0.068710,0.020240,0.305198
1980-01-06T00:02:35.200426138Z,1.314417,2.427721,9.133281,-0.048203,-0.024767,0.263653
1980-01-06T00:02:35.220296503Z,1.284489,2.463634,9.214684,-0.068843,-0.029827,0.267914
1980-01-06T00:02:35.240208847Z,1.241394,2.469619,9.310452,-0.078829,-0.005593,0.281762
1980-01-06T00:02:35.260007857Z,1.152808,2.352303,9.190742,-0.038882,-0.021172,0.299872
1980-01-06T00:02:35.279991034Z,1.082179,2.108095,9.104550,-0.032624,0.007324,0.317981
1980-01-06T00:02:35.299818013Z,1.114501,2.196680,9.032724,-0.035953,0.054062,0.328634
1980-01-06T00:02:35.319717492Z,1.201889,2.292448,9.058163,-0.060054,0.081759,0.355798
1980-01-06T00:02:35.339512857Z,1.306037,2.472013,9.024644,-0.075367,0.139150,0.362190
1980-01-06T00:02:35.359454836Z,1.383849,2.402581,9.034221,-0.071373,0.107325,0.362190
1980-01-06T00:02:35.379301346Z,1.438915,2.363077,8.991125,-0.085887,0.065247,0.347276
1980-01-06T00:02:35.399111138Z,1.497573,2.294842,9.144354,-0.119842,0.029028,0.344080
1980-01-06T00:02:35.438898586Z,1.489193,2.302025,9.185953,-0.128098,0.079362,0.336091
1980-01-06T00:02:35.458808794Z,1.420959,2.345121,9.257779,-0.098936,0.116513,0.349939
1980-01-06T00:02:35.478578586Z,1.363498,2.312799,9.176376,-0.038749,0.176434,0.351004
1980-01-06T00:02:35.498449992Z,1.388637,2.279280,9.176376,-0.043676,0.175635,0.327569
1980-01-06T00:02:35.518370149Z,1.276109,2.075773,9.257779,-0.072837,0.057657,0.308394
1980-01-06T00:02:35.538205409Z,1.304840,1.837550,9.281721,-0.116913,-0.000932,0.326503
1980-01-06T00:02:35.558134419Z,1.347936,1.839944,9.267356,-0.147140,0.052065,0.331830
1980-01-06T00:02:35.597857701Z,1.389834,1.801637,9.573814,-0.186288,0.035819,0.364853
1980-01-06T00:02:35.617726815Z,1.480814,1.704672,9.478944,-0.159390,0.069242,0.372310
1980-01-06T00:02:35.637552544Z,1.540669,1.650802,9.450213,-0.127166,0.076832,0.355265
1980-01-06T00:02:35.657409263Z,1.483208,1.499967,9.569026,-0.102265,0.056858,0.347809
1980-01-06T00:02:35.677284263Z,1.371878,1.600524,9.482835,-0.081493,0.056725,0.338221
1980-01-06T00:02:35.697167128Z,1.267730,1.637634,9.296086,-0.050866,0.059788,0.357396
1980-01-06T00:02:35.717003898Z,1.279701,1.662773,9.075820,-0.030094,0.111986,0.366983
1980-01-06T00:02:35.756748482Z,1.403002,1.602918,8.877700,-0.066712,0.125035,0.385625
1980-01-06T00:02:35.776917909Z,1.406593,1.659182,8.906430,-0.106127,0.113451,0.383495
1980-01-06T00:02:35.796554992Z,1.376666,1.386243,8.944737,-0.135821,0.104529,0.393082
1980-01-06T00:02:35.816365148Z,1.365892,1.417367,9.064447,-0.161387,0.126101,0.400539
1980-01-06T00:02:35.836360513Z,1.328782,1.567005,9.198523,-0.179097,0.131826,0.410126
1980-01-06T00:02:35.856126346Z,1.383849,1.401805,9.260772,-0.153265,0.095474,0.390952
1980-01-06T00:02:35.895906398Z,1.403002,1.146823,8.968679,-0.129163,0.039148,0.368581
1980-01-06T00:02:35.915839992Z,1.387440,1.059434,9.126697,-0.181627,0.057258,0.403735
1980-01-06T00:02:35.935607284Z,1.426944,1.146823,9.284714,-0.221442,0.095607,0.434628
1980-01-06T00:02:35.955455721Z,1.588553,1.203086,9.586384,-0.220243,0.119443,0.454868
1980-01-06T00:02:35.975469055Z,1.689109,1.061828,9.538500,-0.140215,0.139150,0.425040
1980-01-06T00:02:35.995286971Z,1.630451,0.972046,9.418790,-0.084688,0.101866,0.398409
1980-01-06T00:02:36.015112909Z,1.576582,1.000776,9.409213,-0.122905,0.124370,0.385625
1980-01-06T00:02:36.054794159Z,1.468843,1.039083,9.452309,-0.145808,0.143012,0.378169
1980-01-06T00:02:36.074703534Z,1.503559,0.924162,9.433155,-0.112252,0.190549,0.351537
1980-01-06T00:02:36.094553169Z,1.486799,0.943315,9.404425,-0.104130,0.169643,0.336623
1980-01-06T00:02:36.114452961Z,1.470040,0.952892,9.428965,-0.125435,0.156461,0.306796
1980-01-06T00:02:36.134414575Z,1.302446,0.857124,9.509769,-0.167912,0.109456,0.302535
1980-01-06T00:02:36.154186867Z,1.192312,0.820014,9.619903,-0.180828,0.163385,0.294013
1980-01-06T00:02:36.174010461Z,1.094150,0.853533,9.624691,-0.153664,0.166714,0.298274
1980-01-06T00:02:36.193889575Z,1.064223,0.831985,9.715671,-0.145808,0.178165,0.291882
1980-01-06T00:02:36.213783586Z,1.043872,0.760159,9.809942,-0.150202,0.158991,0.285491
1980-01-06T00:02:36.233636450Z,0.966060,0.796072,9.781212,-0.140215,0.131161,0.274838
1980-01-06T00:02:36.253574367Z,0.776918,0.647632,9.759365,-0.121440,0.125435,0.284425
1980-01-06T00:02:36.273484940Z,0.737414,0.717063,9.840768,-0.149936,0.150335,0.284425
1980-01-06T00:02:36.293252492Z,0.559046,0.681150,9.668385,-0.116913,0.115847,0.307861
1980-01-06T00:02:36.313118377Z,0.592565,0.545878,9.706693,-0.117578,0.173238,0.315318
1980-01-06T00:02:36.333001502Z,0.650026,0.585382,9.658808,-0.107858,0.174970,0.333427
1980-01-06T00:02:36.372782127Z,0.572214,0.614113,9.279925,-0.029694,0.195742,0.335558
1980-01-06T00:02:36.392728742Z,0.635661,0.441730,9.323022,-0.060587,0.214517,0.337689
1980-01-06T00:02:36.412456034Z,0.670376,0.561440,9.230545,-0.062984,0.192413,0.349406
1980-01-06T00:02:36.432347752Z,0.725443,0.466869,9.067739,-0.042611,0.197473,0.334493
1980-01-06T00:02:36.452299106Z,0.760159,0.300472,9.371504,-0.085487,0.152732,0.346211
1980-01-06T00:02:36.472240929Z,0.927753,0.183156,9.572617,-0.095874,0.170442,0.330232
1980-01-06T00:02:36.531803065Z,0.782904,0.150835,9.398140,-0.088017,0.102265,0.276969
1980-01-06T00:02:36.551547023Z,0.290895,0.338780,9.462483,-0.020773,0.180562,0.316383
1980-01-06T00:02:36.571482231Z,0.559046,0.162806,9.658808,-0.013183,0.338487,0.334493
1980-01-06T00:02:36.591518377Z,0.572214,-0.137667,9.261371,0.000399,0.344746,0.358994
1980-01-06T00:02:36.611180617Z,0.578200,0.123301,9.515156,-0.011452,0.398675,0.311057
1980-01-06T00:02:36.631097023Z,0.375890,0.348356,9.812037,-0.048869,0.335691,0.331297
1980-01-06T00:02:36.690685513Z,0.341174,0.081403,9.088988,0.071772,0.516253,0.296143
1980-01-06T00:02:36.710621294Z,0.204704,0.386664,9.050681,0.004261,0.547545,0.275903
1980-01-06T00:02:36.730446190Z,0.187945,0.404620,9.280524,-0.053396,0.531700,0.257794
1980-01-06T00:02:36.750294679Z,0.179565,0.470461,9.535806,-0.119310,0.493084,0.231695
1980-01-06T00:02:36.770148950Z,0.082600,0.645237,9.698612,-0.087884,0.479901,0.212520
1980-01-06T00:02:36.790182961Z,0.019154,0.365116,9.574113,-0.019574,0.509196,0.147539
1980-01-06T00:02:36.829770929Z,-0.256180,0.229843,9.847053,-0.176701,0.413056,0.092145
1980-01-06T00:02:36.849637856Z,-0.494403,0.390255,10.149919,-0.099868,0.470580,0.039415
1980-01-06T00:02:36.869582700Z,-0.547075,0.345962,10.164284,-0.075900,0.464055,0.023436
1980-01-06T00:02:36.889437179Z,-0.814029,0.569820,10.269629,-0.045007,0.404534,0.035154
1980-01-06T00:02:36.909276606Z,-0.922965,0.466869,10.283994,-0.019841,0.482431,0.028762
1980-01-06T00:02:36.929142752Z,-0.985214,0.359130,10.025420,-0.010919,0.518384,0.008522
1980-01-06T00:02:36.949173013Z,-1.126472,0.342371,9.747693,-0.035819,0.459262,-0.011718
1980-01-06T00:02:36.988708794Z,-1.309628,0.396240,9.729137,-0.138085,0.319313,-0.039947
1980-01-06T00:02:37.008746867Z,-1.408988,0.468066,9.614216,-0.168844,0.325172,-0.059122
1980-01-06T00:02:37.028643846Z,-1.412579,0.403423,9.465775,-0.165782,0.349273,-0.072971
1980-01-06T00:02:37.048500617Z,-1.487996,0.294487,9.465775,-0.185223,0.281496,-0.056992
1980-01-06T00:02:37.068193846Z,-1.648408,0.193930,9.336489,-0.176567,0.301736,-0.072971
1980-01-06T00:02:37.088224210Z,-1.642422,0.180762,9.331700,-0.182959,0.350738,-0.080427
1980-01-06T00:02:37.127986398Z,-1.630451,0.150835,9.651326,-0.215849,0.389087,-0.034621
1980-01-06T00:02:37.147657804Z,-1.705869,0.088585,9.408315,-0.120641,0.443815,-0.060187
1980-01-06T00:02:37.167608533Z,-1.843535,-0.083797,9.259874,-0.086286,0.436492,-0.101733
1980-01-06T00:02:37.187498169Z,-1.980005,-0.088585,9.580697,-0.132093,0.324772,-0.109190
1980-01-06T00:02:37.207466867Z,-2.076970,-0.248997,9.604639,-0.153132,0.268979,-0.136886
1980-01-06T00:02:37.227164940Z,-2.153584,-0.246603,9.589077,-0.131161,0.227966,-0.151800
1980-01-06T00:02:37.247113846Z,-2.232593,-0.344765,9.445425,-0.054728,0.243945,-0.152865
1980-01-06T00:02:37.286918169Z,-2.319981,-0.523133,9.071930,-0.031558,0.359393,-0.201867
1980-01-06T00:02:37.306628117Z,-2.337938,-0.189142,9.269152,-0.115714,0.311590,-0.191747
1980-01-06T00:02:37.326659367Z,-2.309207,-0.207098,9.331401,-0.110388,0.270444,-0.194943
1980-01-06T00:02:37.346535564Z,-2.475605,-0.551863,9.320028,-0.097738,0.256462,-0.228499
1980-01-06T00:02:37.366333637Z,-2.530671,-0.640449,9.640852,-0.131560,0.198672,-0.209324
1980-01-06T00:02:37.386251971Z,-2.545036,-0.719458,9.808446,-0.129430,0.246609,-0.201867
1980-01-06T00:02:37.406146033Z,-2.551022,-0.626084,9.747094,-0.038349,0.316250,-0.219977
1980-01-06T00:02:37.445882127Z,-2.683900,-0.660800,9.871593,0.048869,0.322375,-0.231695
1980-01-06T00:02:37.465726294Z,-2.740164,-0.665588,9.589077,0.117845,0.293081,-0.254065
1980-01-06T00:02:37.485440773Z,-2.744952,-0.545878,9.627384,0.103064,0.238220,-0.261522
1980-01-06T00:02:37.505310148Z,-2.734178,-0.519542,9.608231,0.109722,0.142346,-0.270044
1980-01-06T00:02:37.525281502Z,-2.692280,-0.768539,9.359234,0.119709,0.070041,-0.366983
1980-01-06T00:02:37.545274783Z,-3.088520,-0.007183,10.422259,0.141680,-0.019707,-0.376571
1980-01-06T00:02:37.584957491Z,-3.165135,-0.330400,9.785401,0.173771,0.191215,-0.317981
1980-01-06T00:02:37.604798325Z,-3.137601,-0.245406,9.871593,0.188818,0.194810,-0.287089
1980-01-06T00:02:37.624714939Z,-3.190274,-0.284910,9.907805,0.165116,0.081626,-0.252467
1980-01-06T00:02:37.644394471Z,-3.172317,-0.410606,9.433753,0.142745,0.086420,-0.278034
1980-01-06T00:02:37.664418741Z,-3.201048,-0.438139,9.454403,0.101333,0.033023,-0.257261
1980-01-06T00:02:37.684200252Z,-3.270479,-0.319626,9.554959,0.081226,0.009454,-0.232760
1980-01-06T00:02:37.704143898Z,-3.254917,-0.447716,9.377789,0.064848,0.070441,-0.246609
1980-01-06T00:02:37.743747491Z,-3.114856,-0.122104,9.509769,0.104662,0.010919,-0.207726
1980-01-06T00:02:37.763599002Z,-3.051410,-0.355539,9.184157,0.137952,0.063783,-0.256729
1980-01-06T00:02:37.783484314Z,-2.871845,-0.525527,9.284714,0.048070,0.035287,-0.215183
1980-01-06T00:02:37.803407179Z,-2.688689,-0.184354,9.654019,0.021172,0.121307,-0.210922
1980-01-06T00:02:37.823442387Z,-2.761712,0.087388,9.775825,0.095075,0.172839,-0.246609
1980-01-06T00:02:37.843294210Z,-3.034651,-0.119710,9.662998,0.161121,0.137552,-0.255663
1980-01-06T00:02:37.882917648Z,-3.081338,-0.453701,9.437943,0.191082,0.051932,-0.299339
1980-01-06T00:02:37.902847439Z,-3.081338,-0.349553,9.103354,0.172972,0.084289,-0.329699
1980-01-06T00:02:37.922579835Z,-3.183091,-0.114922,9.074623,0.168178,0.072971,-0.294545
1980-01-06T00:02:37.942507960Z,-3.148375,-0.166397,9.342773,0.112785,0.088417,-0.260457
1980-01-06T00:02:37.962453637Z,-3.226187,-0.177171,9.500791,0.117179,0.092944,-0.244478
1980-01-06T00:02:37.982337960Z,-3.268085,-0.294487,9.443330,0.145808,0.140348,-0.281762
1980-01-06T00:02:38.002052908Z,-3.262100,-0.265756,9.395446,0.152732,0.116780,-0.250870
1980-01-06T00:02:38.041874783Z,-3.204639,-0.101754,9.299678,0.064848,0.164450,-0.278566
1980-01-06T00:02:38.061665460Z,-3.046622,0.003591,9.337985,0.052597,0.094942,-0.267914
1980-01-06T00:02:38.081693168Z,-3.309984,-0.253785,9.141661,0.100934,0.029961,-0.302002
1980-01-06T00:02:38.101559210Z,-2.949656,-0.282516,9.098565,-0.016378,-0.039282,-0.356331
1980-01-06T00:02:38.121353377Z,-3.341109,-0.016759,8.828619,-0.043942,-0.201068,-0.282295
1980-01-06T00:02:38.141122804Z,-3.563769,-0.281319,8.990526,-0.073503,-0.073770,-0.306263
1980-01-06T00:02:38.161165512Z,-3.509900,-0.232238,9.040505,-0.054595,0.026498,-0.317449
1980-01-06T00:02:38.200894158Z,-3.453636,-0.162806,9.423578,0.005193,0.008123,-0.325971
1980-01-06T00:02:38.220650929Z,-3.357868,-0.177171,9.442732,-0.029561,-0.075900,-0.334493
1980-01-06T00:02:38.240714314Z,-3.299210,-0.189142,9.562442,-0.038083,-0.191082,-0.302535
1980-01-06T00:02:38.260523481Z,-3.286042,-0.450110,9.369708,0.004661,-0.127832,-0.338754
1980-01-06T00:02:38.280246241Z,-3.287239,-0.300472,9.503783,0.063916,-0.099735,-0.356863
1980-01-06T00:02:38.300183012Z,-3.333926,-0.244209,9.369708,0.068443,-0.066313,-0.368581
1980-01-06T00:02:38.359716918Z,-3.327940,-0.271742,9.388862,0.070707,-0.039947,-0.307861
1980-01-06T00:02:38.379581345Z,-3.022680,-0.450110,9.566033,0.056193,-0.055793,-0.356863
1980-01-06T00:02:38.399512908Z,-2.869451,-0.454898,9.096769,0.025034,-0.198405,-0.319579
1980-01-06T00:02:38.419377856Z,-3.005920,-0.518345,9.111135,0.015446,-0.211455,-0.287621
1980-01-06T00:02:38.439191918Z,-3.027468,-0.515950,9.126697,0.013049,-0.091480,-0.289752
1980-01-06T00:02:38.459196918Z,-3.078943,-0.445322,9.411008,0.058323,-0.033955,-0.295611
1980-01-06T00:02:38.498791449Z,-2.960430,-0.648829,9.528923,0.055127,-0.026765,-0.360059
1980-01-06T00:02:38.518760460Z,-2.730587,-0.571017,9.701305,0.067245,-0.168178,-0.380299
1980-01-06T00:02:38.538548168Z,-2.765303,-0.542287,9.691729,0.098670,-0.240217,-0.401604
1980-01-06T00:02:38.558585616Z,-2.892196,-0.523133,9.629479,0.149670,-0.184557,-0.405865
1980-01-06T00:02:38.578275460Z,-2.803610,-0.646434,9.241618,0.163518,-0.086020,-0.417583
1980-01-06T00:02:38.598309783Z,-2.821567,-0.464475,9.289502,0.144210,-0.054994,-0.428236
1980-01-06T00:02:38.618058533Z,-2.609680,-0.490811,9.447520,0.133691,-0.141414,-0.458063
1980-01-06T00:02:38.638028168Z,-2.290054,-0.732626,9.188946,0.137818,-0.349273,-0.537958
1980-01-06T00:02:38.657897595Z,-2.533065,-0.450110,9.452309,0.170842,-0.469115,-0.551807
1980-01-06T00:02:38.677635824Z,-2.673126,-0.523133,9.437943,0.220510,-0.343015,-0.568851
1980-01-06T00:02:38.697484158Z,-2.632425,-0.650026,9.370906,0.277501,-0.111986,-0.523044
1980-01-06T00:02:38.717371918Z,-2.887407,-0.495600,8.882488,0.445546,0.070441,-0.528371
1980-01-06T00:02:38.737326033Z,-2.511518,-0.124498,10.309433,0.643819,0.275104,-0.614657
1980-01-06T00:02:38.757251137Z,-2.365471,-0.853533,9.380483,0.121041,0.005060,-0.415453
1980-01-06T00:02:38.796957543Z,-2.517503,0.028730,9.404425,0.076166,-0.316383,-0.535828
1980-01-06T00:02:38.816809574Z,-2.825158,-0.102951,9.208099,0.283360,-0.116913,-0.548611
1980-01-06T00:02:38.836572751Z,-2.600103,-0.339977,9.500193,0.334892,0.140881,-0.606135
1980-01-06T00:02:38.856425251Z,-2.513912,-0.430956,9.102755,0.251802,0.051133,-0.556068
1980-01-06T00:02:38.876381866Z,-2.669535,-0.320823,9.447520,0.238752,-0.030094,-0.572047
1980-01-06T00:02:38.896178585Z,-2.433706,-0.332794,9.481039,0.174836,-0.239285,-0.556068
1980-01-06T00:02:38.916053168Z,-2.640805,-0.234632,9.548077,0.132359,-0.368714,-0.549676
1980-01-06T00:02:38.955956449Z,-2.583344,-0.254982,9.361329,0.115581,-0.128631,-0.556068
1980-01-06T00:02:38.975815668Z,-2.321178,-0.007183,9.629479,0.116380,-0.134356,-0.547545
1980-01-06T00:02:38.995673116Z,-2.444480,-0.020351,9.701305,0.163252,-0.247274,-0.526240
1980-01-06T00:02:39.015591449Z,-2.586935,-0.150835,9.478944,0.166314,-0.265117,-0.516120
1980-01-06T00:02:39.035268168Z,-2.366668,-0.148441,9.435848,0.132226,-0.300138,-0.512924
1980-01-06T00:02:39.055119626Z,-2.450465,-0.081403,9.679159,0.114250,-0.313986,-0.493750
1980-01-06T00:02:39.074471762Z,-2.574964,-0.004788,9.822811,-0.001997,-0.299472,-0.437291
1980-01-06T00:02:39.114955616Z,-2.298434,0.088585,9.636064,0.017311,-0.391218,-0.388289
1980-01-06T00:02:39.134682230Z,-2.424129,0.063446,9.664794,0.090681,-0.402004,-0.336091
1980-01-06T00:02:39.154471710Z,-2.510320,-0.136469,9.463681,0.111586,-0.281363,-0.329699
1980-01-06T00:02:39.174421814Z,-2.351106,-0.079009,9.353547,0.035553,-0.236489,-0.308394
1980-01-06T00:02:39.194370095Z,-2.069787,0.174777,9.506777,0.021971,-0.280697,-0.264718
1980-01-06T00:02:39.214129001Z,-2.001553,-0.003591,9.497200,0.072038,-0.332362,-0.250870
1980-01-06T00:02:39.234047595Z,-1.899799,-0.187945,9.320028,0.010653,-0.376038,-0.264718
1980-01-06T00:02:39.273780772Z,-1.636437,-0.092177,9.476849,-0.055926,-0.520648,-0.191747
1980-01-06T00:02:39.293710564Z,-1.570596,-0.191536,9.831191,-0.002397,-0.460726,-0.166181
1980-01-06T00:02:39.313613637Z,-1.491588,-0.335188,9.768942,0.013982,-0.383229,-0.150202
1980-01-06T00:02:39.333297126Z,-1.193510,-0.277727,9.945813,0.024368,-0.367516,-0.174171
1980-01-06T00:02:39.353336970Z,-1.216254,-0.217872,9.960178,0.062185,-0.484429,-0.199737
1980-01-06T00:02:39.373053532Z,-1.279701,-0.220267,9.706393,0.015047,-0.480700,-0.179497
1980-01-06T00:02:39.412940095Z,-1.072602,-0.061052,9.601347,0.050866,-0.351936,-0.140615
1980-01-06T00:02:39.432746397Z,-0.872687,-0.281319,9.515156,0.053663,-0.281895,-0.148072
1980-01-06T00:02:39.452529835Z,-0.803255,-0.246603,9.385869,0.025034,-0.166447,-0.197074
1980-01-06T00:02:39.472533220Z,-0.717063,-0.080206,9.572617,0.016245,-0.221042,-0.176834
1980-01-06T00:02:39.492395824Z,-0.810437,-0.046687,9.481637,0.018509,-0.261256,-0.153398
1980-01-06T00:02:39.512122282Z,-0.750582,-0.124498,9.428965,0.052065,-0.239684,-0.165116
1980-01-06T00:02:39.532207178Z,-0.820014,-0.062249,9.357139,0.036618,-0.280697,-0.148072
1980-01-06T00:02:39.551850199Z,-0.897826,0.065841,9.323620,0.084289,-0.333960,-0.090547
1980-01-06T00:02:39.571732334Z,-0.906205,-0.090980,9.654019,0.100002,-0.346610,-0.075634
1980-01-06T00:02:39.591767543Z,-1.054646,0.165200,9.897630,0.010786,-0.311723,-0.019175
1980-01-06T00:02:39.611644366Z,-0.756568,0.123301,9.993398,-0.260723,-0.685763,0.275903
1980-01-06T00:02:39.631364730Z,-0.760159,-0.495600,10.237606,0.197207,-0.459262,-0.083091
1980-01-06T00:02:39.651275355Z,-0.843956,0.114922,9.514558,0.020240,-0.380565,0.031958
1980-01-06T00:02:39.671220407Z,-0.387861,0.168791,9.667787,0.072837,-0.314120,0.009587
1980-01-06T00:02:39.710800824Z,-0.403423,-0.202310,10.002975,-0.004128,-0.045141,-0.021305
1980-01-06T00:02:39.730779522Z,0.034716,-0.099359,9.787497,-0.029961,-0.044208,0.007457
1980-01-06T00:02:39.750557543Z,0.089783,-0.228646,9.658210,-0.037151,-0.012251,0.006392
1980-01-06T00:02:39.770414261Z,-0.061052,-0.051475,9.840169,-0.042211,0.000932,-0.017044
1980-01-06T00:02:39.790321345Z,-0.031125,-0.208296,9.706094,-0.045141,-0.001332,-0.008522
1980-01-06T00:02:39.810319261Z,0.008380,-0.167594,9.725247,-0.019308,0.006125,0.001065
1980-01-06T00:02:39.830207334Z,-0.016759,-0.174777,9.734824,-0.021039,0.005992,0.014914
1980-01-06T00:02:39.889694105Z,-0.067038,-0.105345,9.759365,-0.015713,-0.006125,0.004261
1980-01-06T00:02:39.909636188Z,0.077812,-0.049081,9.711481,-0.024368,-0.001065,0.062851
1980-01-06T00:02:39.929560095Z,-0.010774,-0.335188,9.791088,-0.027830,-0.006258,0.077764
1980-01-06T00:02:39.949242543Z,-0.083797,-0.203507,9.753978,-0.022104,-0.015846,0.033023
1980-01-06T00:02:39.969119834Z,0.108936,-0.311246,9.634268,0.019175,-0.006924,0.041545
1980-01-06T00:02:39.989005720Z,0.350751,-0.403423,9.677363,0.055527,0.019308,0.028762
1980-01-06T00:02:40.009242178Z,-0.089783,-0.074220,9.719262,-0.021039,-0.005459,0.045806
1980-01-06T00:02:40.028748636Z,-0.028730,-0.281319,9.695320,0.018509,-0.009454,-0.008522
1980-01-06T00:02:40.048768584Z,-0.044293,-0.235829,9.726145,0.005060,-0.007723,-0.014914
1980-01-06T00:02:40.068639626Z,-0.007183,-0.144849,9.711780,0.002796,-0.009587,-0.015979
1980-01-06T00:02:40.088338011Z,-0.002394,-0.174777,9.735722,0.004794,-0.008922,-0.013848
1980-01-06T00:02:40.108267751Z,-0.015562,-0.147243,9.697116,0.013582,-0.010386,-0.012783
1980-01-06T00:02:40.128086240Z,-0.028730,-0.146046,9.739613,0.007191,-0.010386,-0.012783
1980-01-06T00:02:40.187709157Z,-0.032322,-0.175974,9.720459,-0.000799,-0.010120,-0.014914
1980-01-06T00:02:40.207576136Z,-0.003591,-0.167594,9.730036,-0.006924,-0.008256,-0.014914
1980-01-06T00:02:40.227425720Z,-0.027533,-0.167594,9.725247,-0.011452,-0.007723,-0.013848
1980-01-06T00:02:40.247399261Z,-0.008380,-0.180762,9.720459,-0.011452,-0.006924,-0.013848
1980-01-06T00:02:40.267359418Z,0.003591,-0.129287,9.734824,-0.009321,-0.008522,-0.014914
1980-01-06T00:02:40.287041657Z,0.089783,-0.106542,9.662998,-0.005060,-0.007057,-0.011718
1980-01-06T00:02:40.346726084Z,-0.037110,-0.205901,9.709685,-0.000932,-0.009321,-0.013848
1980-01-06T00:02:40.366594990Z,-0.021548,-0.192733,9.738416,-0.005193,-0.007723,-0.012783
1980-01-06T00:02:40.386598063Z,-0.010774,-0.143652,9.724051,-0.002131,-0.006525,-0.013848
1980-01-06T00:02:40.406452386Z,-0.004788,-0.171185,9.714474,-0.002796,-0.007057,-0.012783
1980-01-06T00:02:40.426656501Z,-0.029928,-0.147243,9.752781,0.001598,-0.007723,-0.013848
1980-01-06T00:02:40.446104365Z,-0.008380,-0.193930,9.712977,0.005060,-0.008788,-0.013316
1980-01-06T00:02:40.485725824Z,-0.002394,-0.148441,9.720459,0.001465,-0.008123,-0.013848
1980-01-06T00:02:40.505614157Z,-0.017957,-0.180762,9.725247,-0.002131,-0.007989,-0.014914
1980-01-06T00:02:40.525463636Z,-0.011971,-0.171185,9.720459,-0.001198,-0.007856,-0.012783
1980-01-06T00:02:40.545353688Z,-0.020351,-0.154426,9.734824,0.000533,-0.008522,-0.013848
1980-01-06T00:02:40.565270563Z,-0.026336,-0.186748,9.710882,0.001997,-0.008522,-0.013848
1980-01-06T00:02:40.585237126Z,-0.045490,-0.187945,9.643845,0.004394,-0.010386,-0.013848
1980-01-06T00:02:40.644851501Z,0.003591,-0.136469,9.757569,0.000799,-0.007856,-0.012783
1980-01-06T00:02:40.664544522Z,-0.010774,-0.174777,9.724051,-0.001332,-0.008256,-0.012783
1980-01-06T00:02:40.684506709Z,-0.041899,-0.205901,9.575610,-0.004394,-0.007989,-0.012783
