timestamp,accel_x,accel_y,accel_z,gyro_x,gyro_y,gyro_z
1980-01-06T00:29:04.301669126Z,-0.033519,-0.180762,9.702203,-0.002929,-0.008922,-0.014781
1980-01-06T00:29:04.321543240Z,-0.007183,-0.209493,9.678261,-0.001198,-0.007590,-0.014781
1980-01-06T00:29:04.341469907Z,-0.040701,-0.205901,9.735722,-0.001997,-0.009055,-0.014781
1980-01-06T00:29:04.361515584Z,-0.043096,-0.227449,9.678261,-0.001065,-0.007723,-0.014781
1980-01-06T00:29:04.381150688Z,-0.022745,-0.213084,9.706991,-0.002663,-0.009188,-0.014781
1980-01-06T00:29:04.401032824Z,-0.017957,-0.193930,9.740510,-0.003728,-0.008256,-0.014781
1980-01-06T00:29:04.440749542Z,-0.029928,-0.193930,9.735722,-0.004394,-0.009587,-0.015846
1980-01-06T00:29:04.460683709Z,-0.016759,-0.289698,9.644742,-0.002796,-0.009721,-0.014781
1980-01-06T00:29:04.480515584Z,-0.022745,-0.269348,9.702203,0.002663,-0.006924,-0.014781
1980-01-06T00:29:04.500574855Z,-0.055067,-0.116119,9.817124,-0.002264,-0.007989,-0.014781
1980-01-06T00:29:04.520257719Z,-0.051475,-0.053870,9.668684,-0.003728,-0.007856,-0.014781
1980-01-06T00:29:04.540122928Z,-0.013168,-0.143652,9.702203,-0.004794,-0.008256,-0.015846
1980-01-06T00:29:04.599723188Z,-0.025139,-0.219069,9.702203,0.000533,-0.008389,-0.015846
1980-01-06T00:29:04.619615949Z,-0.050278,-0.177171,9.711780,-0.001332,-0.007590,-0.013715
1980-01-06T00:29:04.639482928Z,-0.026336,-0.168791,9.706991,-0.004128,-0.009321,-0.014781
1980-01-06T00:29:04.659344490Z,-0.005986,-0.214281,9.697414,-0.004661,-0.007989,-0.014781
1980-01-06T00:29:04.679204282Z,-0.007183,-0.254982,9.711780,-0.002796,-0.009188,-0.014781
1980-01-06T00:29:04.699084959Z,-0.034716,-0.221464,9.697414,-0.000799,-0.007723,-0.013715
1980-01-06T00:29:04.758701782Z,-0.047884,-0.120907,9.745298,0.000266,-0.008922,-0.014781
1980-01-06T00:29:04.778582980Z,-0.007183,-0.183156,9.683049,-0.001198,-0.008389,-0.014781
1980-01-06T00:29:04.798483553Z,-0.016759,-0.243011,9.697414,-0.003995,-0.009321,-0.014781
1980-01-06T00:29:04.818336001Z,-0.015562,-0.245406,9.697414,-0.004128,-0.008788,-0.014781
1980-01-06T00:29:04.838200792Z,-0.019154,-0.229843,9.687838,-0.002131,-0.007856,-0.013715
1980-01-06T00:29:04.858010271Z,-0.020351,-0.196325,9.697414,-0.002131,-0.007989,-0.014781
1980-01-06T00:29:04.897753032Z,-0.023942,-0.203507,9.706991,-0.001465,-0.007856,-0.014781
1980-01-06T00:29:04.917660792Z,-0.009577,-0.208296,9.706991,-0.000932,-0.008788,-0.014781
1980-01-06T00:29:04.937536105Z,-0.005986,-0.178368,9.716568,-0.001198,-0.006791,-0.014781
1980-01-06T00:29:04.957372146Z,-0.020351,-0.165200,9.706991,-0.002131,-0.007723,-0.014781
1980-01-06T00:29:04.977278501Z,-0.033519,-0.185551,9.702203,-0.003595,-0.008123,-0.015846
1980-01-06T00:29:04.997126990Z,-0.038307,-0.215478,9.706991,-0.003595,-0.007590,-0.014781
1980-01-06T00:29:05.017039907Z,-0.015562,-0.229843,9.702203,-0.003196,-0.007590,-0.014781
1980-01-06T00:29:05.056751261Z,-0.014365,-0.205901,9.697414,-0.001465,-0.008522,-0.015846
1980-01-06T00:29:05.076659907Z,-0.019154,-0.190339,9.716568,-0.003063,-0.009321,-0.014781
1980-01-06T00:29:05.096510532Z,-0.051475,-0.198719,9.702203,-0.003063,-0.009454,-0.015846
1980-01-06T00:29:05.116341157Z,-0.034716,-0.190339,9.706991,-0.002663,-0.009587,-0.015846
1980-01-06T00:29:05.136252667Z,-0.032322,-0.214281,9.706991,-0.002530,-0.008522,-0.015846
1980-01-06T00:29:05.156081105Z,-0.002394,-0.197522,9.702203,-0.002530,-0.008123,-0.014781
1980-01-06T00:29:05.215733032Z,-0.039504,-0.193930,9.697414,-0.002929,-0.008922,-0.014781
1980-01-06T00:29:05.235577771Z,-0.040701,-0.211887,9.716568,-0.002530,-0.007590,-0.014781
1980-01-06T00:29:05.255505688Z,-0.032322,-0.229843,9.697414,-0.002397,-0.008522,-0.015846
1980-01-06T00:29:05.275425323Z,-0.019154,-0.203507,9.711780,-0.002397,-0.007856,-0.014781
1980-01-06T00:29:05.295181105Z,-0.052672,-0.247800,9.663896,-0.061386,0.003196,-0.012650
1980-01-06T00:29:05.315057823Z,0.126893,-0.220267,9.802759,-0.196275,0.033689,-0.007324
1980-01-06T00:29:05.354776990Z,-0.150835,-0.503979,9.587281,0.115581,-0.021838,-0.029694
1980-01-06T00:29:05.374665480Z,-0.015562,-0.137667,9.754875,-0.023569,-0.014248,-0.019042
1980-01-06T00:29:05.394544698Z,0.000000,-0.205901,9.616012,-0.032091,0.000533,-0.032890
1980-01-06T00:29:05.414389125Z,-0.099359,-0.289698,9.788394,-0.016378,-0.015180,-0.030759
1980-01-06T00:29:05.434278813Z,-0.064643,-0.220267,9.750087,0.004927,-0.014514,-0.017976
1980-01-06T00:29:05.454144646Z,0.003591,-0.213084,9.697414,0.019308,-0.014381,-0.012650
1980-01-06T00:29:05.474007927Z,-0.061052,-0.222661,9.721955,0.002929,-0.007057,-0.017577
1980-01-06T00:29:05.513783657Z,-0.025139,-0.211887,9.659706,-0.001997,-0.014514,-0.013316
1980-01-06T00:29:05.533668396Z,-0.046687,-0.214281,9.879972,0.050600,-0.015979,-0.021838
1980-01-06T00:29:05.553513188Z,-0.296881,-0.367510,9.769839,0.037950,-0.017311,-0.071905
1980-01-06T00:29:05.573375636Z,-0.529119,-0.762553,9.434651,-0.011452,-0.014914,-0.215716
1980-01-06T00:29:05.593234282Z,0.020351,0.056264,9.856030,-0.008256,-0.002530,-0.055926
1980-01-06T00:29:05.613154438Z,0.518345,0.239420,9.846454,-0.032224,0.013848,0.062318
1980-01-06T00:29:05.633020479Z,-0.147243,-0.277727,9.707590,-0.029694,0.002131,-0.020773
1980-01-06T00:29:05.672745375Z,-1.784877,-0.487220,9.975740,-0.047537,0.019707,-0.045274
1980-01-06T00:29:05.692580844Z,-1.474828,0.202310,10.425851,-0.331563,0.050999,0.071905
1980-01-06T00:29:05.712445375Z,-2.135628,0.257377,9.760262,-0.484961,0.096273,0.179497
1980-01-06T00:29:05.732329386Z,-2.579752,0.921768,10.315718,-0.286156,0.393615,0.165648
1980-01-06T00:29:05.752238240Z,-2.644396,0.520739,9.827300,-0.249671,0.614657,0.351004
1980-01-06T00:29:05.772376834Z,-2.460042,0.356736,10.033201,-0.203332,0.579104,0.508663
1980-01-06T00:29:05.831724906Z,-2.290054,0.178368,10.368390,-0.276170,0.429701,0.879375
1980-01-06T00:29:05.851605688Z,-2.223016,0.069432,10.306141,-0.110521,0.507998,0.878310
1980-01-06T00:29:05.871422406Z,-1.999158,-0.077812,10.804134,0.012783,0.504136,0.932638
1980-01-06T00:29:05.891279229Z,-1.529895,-0.374693,10.923844,-0.029295,0.369380,0.967792
1980-01-06T00:29:05.911136938Z,-1.347936,-0.270545,10.688614,-0.062451,0.151534,0.979110
1980-01-06T00:29:05.931220271Z,-1.640028,-0.407014,10.693402,-0.085221,-0.025699,1.045157
1980-01-06T00:29:05.990617667Z,-1.572991,-0.276530,11.095629,0.098271,0.285091,1.121856
1980-01-06T00:29:06.010535427Z,-1.276109,-0.205901,11.445182,0.291483,0.254864,1.101616
1980-01-06T00:29:06.030375896Z,-1.158794,-0.611719,11.306318,0.044208,0.223572,1.121856
1980-01-06T00:29:06.050271521Z,-1.346738,-0.286107,11.287165,0.018243,0.084023,1.136769
1980-01-06T00:29:06.070125323Z,-1.399411,-0.062249,11.564892,0.063783,-0.030360,1.165531
1980-01-06T00:29:06.090016261Z,-1.467646,-0.013168,12.029367,0.167380,-0.094143,1.186837
1980-01-06T00:29:06.129762510Z,-1.398214,-0.700304,11.157878,0.398941,-0.001198,1.182576
1980-01-06T00:29:06.149626417Z,-1.130063,-0.803255,10.865786,0.428502,-0.026765,1.159140
1980-01-06T00:29:06.169519385Z,-0.897826,-0.511162,10.281600,0.472711,-0.167912,1.148487
1980-01-06T00:29:06.189338760Z,-0.745794,-0.322020,11.641506,0.492684,-0.313720,1.115464
1980-01-06T00:29:06.209262146Z,-0.718261,-0.193930,11.507431,0.392150,-0.445413,1.092028
1980-01-06T00:29:06.229293604Z,-0.470461,-0.318429,11.890504,0.395213,-0.572446,1.032374
1980-01-06T00:29:06.288698344Z,-0.445322,-0.761356,11.770793,0.717322,-0.698280,0.874714
1980-01-06T00:29:06.308552719Z,-0.298078,-0.787692,10.995072,0.661395,-0.766058,0.839561
1980-01-06T00:29:06.328425062Z,-0.153229,-0.537498,11.143513,0.535561,-0.881639,0.815060
1980-01-06T00:29:06.348280323Z,0.080206,-0.375890,10.683825,0.492684,-0.925048,0.761797
1980-01-06T00:29:06.368180531Z,0.545878,-0.323217,10.899304,0.592952,-0.958338,0.661662
1980-01-06T00:29:06.388052094Z,0.683545,-0.470461,10.453982,0.645683,-0.955275,0.572180
1980-01-06T00:29:06.427812042Z,1.253365,0.071826,10.123583,0.519849,-0.977912,0.365519
1980-01-06T00:29:06.447630062Z,1.328782,0.132878,10.358214,0.362456,-1.095890,0.276036
1980-01-06T00:29:06.467515479Z,1.459266,0.307655,10.918458,0.352070,-1.154080,0.140748
1980-01-06T00:29:06.487395010Z,1.576582,0.289698,11.177032,0.502139,-1.179380,0.034222
1980-01-06T00:29:06.507236365Z,1.806425,-0.057461,10.928035,0.693087,-1.221591,-0.023303
1980-01-06T00:29:06.527145531Z,2.254141,-0.427365,10.109218,0.828376,-1.139033,-0.126633
1980-01-06T00:29:06.547233187Z,2.773683,-0.612916,9.290401,0.823582,-1.032773,-0.209724
1980-01-06T00:29:06.586958031Z,3.684676,-0.464475,8.495525,0.867258,-0.745818,-0.397210
1980-01-06T00:29:06.606618187Z,4.141969,-0.453701,8.265682,0.967659,-0.628905,-0.530368
1980-01-06T00:29:06.626700583Z,4.250905,-0.436942,7.729381,0.983904,-0.654471,-0.665657
1980-01-06T00:29:06.646388083Z,4.102465,-0.365116,7.097311,0.928111,-0.737828,-0.849947
1980-01-06T00:29:06.666249750Z,3.992331,-0.246603,6.685509,0.819321,-0.801744,-1.024650
1980-01-06T00:29:06.686125531Z,3.720589,0.071826,6.599318,0.684831,-0.900148,-1.179114
1980-01-06T00:29:06.745711156Z,2.457648,0.351948,6.359898,0.643020,-0.993358,-1.462474
1980-01-06T00:29:06.765583969Z,2.809596,0.239420,6.489184,0.498676,-1.116263,-1.613741
1980-01-06T00:29:06.785447354Z,2.644396,0.644040,6.441300,0.361391,-1.345827,-1.711745
1980-01-06T00:29:06.805363083Z,2.626439,1.405396,5.876269,0.248340,-1.256478,-1.743703
1980-01-06T00:29:06.825200375Z,2.498349,2.054225,5.196315,0.287621,-0.864062,-1.749030
1980-01-06T00:29:06.845064906Z,2.695871,2.944868,4.387075,0.336756,-0.466852,-1.785249
1980-01-06T00:29:06.865189125Z,2.855086,3.051410,3.568258,0.441019,-0.374440,-1.809750
1980-01-06T00:29:06.904656260Z,3.062184,3.618836,2.998438,-0.032890,-0.760465,-2.077131
1980-01-06T00:29:06.924535114Z,2.293645,4.478354,3.003227,-0.267781,-0.902012,-2.163417
1980-01-06T00:29:06.944427302Z,1.261744,5.068525,3.194763,-0.336224,-0.825047,-2.160221
1980-01-06T00:29:06.964262875Z,0.642843,5.005079,3.328838,-0.374840,-0.760998,-2.049434
1980-01-06T00:29:06.984339854Z,0.125696,4.552575,3.309685,-0.559397,-0.664325,-1.916276
1980-01-06T00:29:07.004017979Z,-0.043096,4.574122,3.654450,-0.816258,-0.515454,-1.917341
1980-01-06T00:29:07.043758760Z,-1.428141,5.118803,5.196315,-1.033971,-0.763394,-1.707484
1980-01-06T00:29:07.063677614Z,-2.212242,4.879383,5.703887,-1.010136,-0.803741,-1.513606
1980-01-06T00:29:07.083503343Z,-2.412158,4.953603,6.249764,-0.926779,-0.662860,-1.311206
1980-01-06T00:29:07.103392823Z,-2.499547,4.206613,6.575376,-0.848216,-0.378834,-1.143960
1980-01-06T00:29:07.123249906Z,-2.073379,4.489128,7.149984,-0.824248,-0.028096,-1.107741
1980-01-06T00:29:07.143109802Z,-1.723825,4.668694,7.849091,-0.986301,0.054195,-0.935168
1980-01-06T00:29:07.202746937Z,-1.322796,5.297171,8.624812,-0.604803,0.233825,-0.767922
1980-01-06T00:29:07.222618343Z,-1.726219,4.726154,8.088511,-0.558731,0.176434,-0.685897
1980-01-06T00:29:07.242465948Z,-1.829170,4.381389,7.801207,-0.694286,0.394281,-0.594284
1980-01-06T00:29:07.262330843Z,-1.331176,4.807557,8.098088,-0.900281,0.558065,-0.528238
1980-01-06T00:29:07.282193864Z,-1.206678,5.341464,9.146749,-0.953943,0.370179,-0.389753
1980-01-06T00:29:07.302091520Z,-1.673547,4.802769,9.443629,-0.851678,0.335425,-0.294945
1980-01-06T00:29:07.361689854Z,-1.908179,4.803966,9.932047,-1.135305,0.299339,-0.065913
1980-01-06T00:29:07.381534698Z,-2.252944,4.501099,10.176255,-0.929442,0.401205,0.024634
1980-01-06T00:29:07.401410375Z,-2.251747,3.319561,10.023026,-0.773914,0.559263,0.113051
1980-01-06T00:29:07.421328656Z,-1.751359,2.920926,10.530597,-0.938763,0.692421,0.175902
1980-01-06T00:29:07.441151729Z,-1.235408,3.606865,11.090840,-1.026781,0.564457,0.236622
1980-01-06T00:29:07.461044020Z,-1.588553,4.041412,10.698191,-0.846219,0.320644,0.274971
1980-01-06T00:29:07.500753343Z,-1.721431,2.136825,9.912893,-0.799880,0.475374,0.538091
1980-01-06T00:29:07.520640739Z,-0.785298,2.826355,11.009438,-0.767256,0.897085,0.399607
1980-01-06T00:29:07.540549854Z,-0.901417,3.262100,10.497078,-0.716257,0.611861,0.409194
1980-01-06T00:29:07.560612354Z,-0.818817,2.043451,10.616788,-0.562592,0.212786,0.496546
1980-01-06T00:29:07.580233760Z,-0.768539,1.502362,10.137948,-0.669385,0.523710,0.500807
1980-01-06T00:29:07.600126520Z,-0.298078,2.297236,10.396522,-0.699479,0.811997,0.433695
1980-01-06T00:29:07.620031260Z,-0.195127,2.519897,10.908881,-0.522778,0.585629,0.444348
1980-01-06T00:29:07.659750479Z,-0.678756,1.116895,11.320384,-0.512259,0.375772,0.468716
1980-01-06T00:29:07.679604020Z,-0.902614,1.371878,11.387422,-0.466186,0.276969,0.476173
1980-01-06T00:29:07.699491416Z,-1.212663,1.150414,11.396998,-0.387756,0.082425,0.548611
1980-01-06T00:29:07.719362666Z,-1.571793,0.577003,11.080964,-0.419847,0.096140,0.590156
1980-01-06T00:29:07.739229229Z,-1.498770,0.877475,11.626842,-0.394813,0.162719,0.592287
1980-01-06T00:29:07.759080531Z,-1.255759,0.693121,11.306019,-0.261789,0.046605,0.618918
1980-01-06T00:29:07.818874593Z,-0.591368,0.567426,10.167276,-0.185622,0.172173,0.591754
1980-01-06T00:29:07.838569593Z,-0.172383,0.125696,10.219949,-0.233825,0.309459,0.573644
1980-01-06T00:29:07.858437041Z,-0.105345,0.333991,10.497677,-0.241549,0.370445,0.458596
1980-01-06T00:29:07.878297093Z,-0.424971,0.471658,10.459370,-0.277501,0.184024,0.466053
1980-01-06T00:29:07.898168499Z,-0.380678,0.422577,10.665271,-0.241948,0.161787,0.452204
1980-01-06T00:29:07.918049124Z,-0.070629,0.342371,10.770616,-0.150202,0.200536,0.377636
1980-01-06T00:29:07.957876729Z,-0.721852,0.165200,10.143334,-0.116646,0.024901,0.300937
1980-01-06T00:29:07.977637666Z,-0.848745,0.197522,10.296564,-0.173638,0.014381,0.257261
1980-01-06T00:29:07.997524229Z,-0.910994,0.323217,10.358813,-0.190416,-0.058723,0.248739
1980-01-06T00:29:08.017455687Z,-1.218649,0.486023,10.205584,-0.106260,-0.060986,0.230630
1980-01-06T00:29:08.037248395Z,-1.496376,0.470461,9.937433,-0.025699,0.028363,0.251935
1980-01-06T00:29:08.057132718Z,-1.130063,0.380678,9.774628,-0.015180,0.155528,0.234891
1980-01-06T00:29:08.116776468Z,-1.426944,0.714669,9.698013,-0.017177,0.090947,0.193345
1980-01-06T00:29:08.136590426Z,-1.284489,0.581791,9.664495,0.017044,0.099203,0.188019
1980-01-06T00:29:08.156493603Z,-1.225831,0.549469,9.415498,0.015313,0.102265,0.146474
1980-01-06T00:29:08.176344176Z,-1.386243,0.585382,9.405921,-0.047804,0.011318,0.161387
1980-01-06T00:29:08.196301260Z,-1.729811,0.841562,9.463382,-0.071506,-0.024501,0.147539
1980-01-06T00:29:08.216119333Z,-2.013524,0.964863,9.420286,-0.101999,-0.081892,0.145408
1980-01-06T00:29:08.275677406Z,-3.712210,1.692701,9.511266,-0.242614,-0.207993,0.377636
1980-01-06T00:29:08.295627353Z,-4.235343,1.896208,9.554361,-0.327702,-0.347542,0.593884
1980-01-06T00:29:08.315406989Z,-4.595670,1.921347,9.788993,-0.405200,-0.306796,0.808002
1980-01-06T00:29:08.335336885Z,-4.939238,2.236184,10.502465,-0.396411,-0.254598,1.022120
1980-01-06T00:29:08.355395530Z,-5.226542,1.865083,10.995670,-0.433695,-0.250470,1.350222
1980-01-06T00:29:08.375027510Z,-4.813542,1.782483,11.651682,-0.481233,-0.054861,1.583514
1980-01-06T00:29:08.414784801Z,-3.135207,1.221043,13.844770,-0.451006,-0.066446,2.053295
1980-01-06T00:29:08.434634958Z,-2.199074,0.839168,14.888642,-0.252867,-0.056992,2.142778
1980-01-06T00:29:08.454578916Z,-1.856703,0.375890,15.506347,0.054994,-0.023169,2.159822
1980-01-06T00:29:08.474416624Z,-1.936909,0.162806,15.860688,0.365519,0.018509,2.183258
1980-01-06T00:29:08.494339385Z,-1.695095,-0.754174,16.090532,0.513856,0.077232,2.166213
1980-01-06T00:29:08.514128395Z,-1.537078,-0.861913,15.262138,0.530501,0.049402,2.192845
1980-01-06T00:29:08.534018447Z,-1.006762,-1.238999,14.519936,0.660996,-0.139550,2.168344
1980-01-06T00:29:08.573756051Z,-0.241814,-1.100136,13.308470,0.653672,-0.612260,2.087384
1980-01-06T00:29:08.593655791Z,0.563834,-1.279701,12.523171,0.717189,-0.834234,1.975531
1980-01-06T00:29:08.613525687Z,1.071405,-1.139640,12.360366,0.560861,-0.996820,1.882853
1980-01-06T00:29:08.633369437Z,1.535880,-0.830788,11.953351,0.825579,-1.119858,1.706020
1980-01-06T00:29:08.653231103Z,2.081758,-1.094150,11.536760,1.005742,-1.198954,1.469531
1980-01-06T00:29:08.673095322Z,2.420538,-1.448492,10.770616,1.125984,-1.372059,1.235173
1980-01-06T00:29:08.732693812Z,3.094506,-1.600524,9.717167,1.084172,-1.609746,0.464988
1980-01-06T00:29:08.752595634Z,3.238158,-1.323994,9.477747,1.168328,-1.498426,0.225303
1980-01-06T00:29:08.772438082Z,3.436877,-1.194707,8.812159,1.331446,-1.378717,-0.009055
1980-01-06T00:29:08.792341416Z,3.580529,-1.078588,8.156147,1.460609,-1.309608,-0.225303
1980-01-06T00:29:08.812240634Z,3.708618,-0.851139,7.418733,1.533580,-1.330248,-0.412790
1980-01-06T00:29:08.832098916Z,3.714604,-0.906205,6.733992,1.516669,-1.389636,-0.577905
1980-01-06T00:29:08.871799437Z,3.611653,-0.319626,5.891232,1.452886,-1.121190,-0.893223
1980-01-06T00:29:08.891682301Z,3.533842,-0.059855,5.278317,1.498027,-0.874049,-1.016794
1980-01-06T00:29:08.911549332Z,3.569755,0.037110,4.679767,1.488573,-0.649944,-1.145691
1980-01-06T00:29:08.931418812Z,3.871424,0.238223,4.191350,1.409876,-0.638359,-1.242630
1980-01-06T00:29:08.951301520Z,3.772065,0.371101,3.535338,1.234374,-0.706137,-1.364070
1980-01-06T00:29:08.971132666Z,3.532645,1.028310,3.118747,1.008938,-0.716123,-1.486575
1980-01-06T00:29:08.991031676Z,3.356671,1.884237,3.118747,0.708001,-0.717055,-1.529186
1980-01-06T00:29:09.030760895Z,2.835932,3.567361,3.315072,0.440620,-0.533830,-1.627190
1980-01-06T00:29:09.050633186Z,2.647987,3.998317,3.281553,0.280297,-0.506133,-1.666605
1980-01-06T00:29:09.070507770Z,2.785654,4.411316,3.549703,0.099469,-0.567652,-1.780588
1980-01-06T00:29:09.090371520Z,2.555810,4.586093,3.635895,-0.086286,-0.833036,-1.864744
1980-01-06T00:29:09.110260009Z,1.976413,5.115212,3.640683,-0.330365,-1.058739,-1.948900
1980-01-06T00:29:09.130134176Z,1.590947,5.820304,3.645471,-0.446212,-1.240366,-1.986184
1980-01-06T00:29:09.150069957Z,0.896629,5.717354,3.554492,-0.504136,-1.232510,-1.965944
1980-01-06T00:29:09.189751676Z,-0.039504,5.018247,3.774758,-0.802543,-0.797616,-1.830655
1980-01-06T00:29:09.209674436Z,-0.353145,5.269638,4.301483,-0.998551,-0.621182,-1.707085
1980-01-06T00:29:09.229488968Z,-0.761356,5.804742,5.000589,-1.063133,-0.409993,-1.614407
1980-01-06T00:29:09.249325061Z,-0.910994,5.579687,5.345355,-1.006141,-0.245810,-1.588841
1980-01-06T00:29:09.269207874Z,-0.948104,5.201403,5.498583,-1.034371,-0.250736,-1.512142
1980-01-06T00:29:09.289065218Z,-1.186327,4.997896,5.718850,-1.159939,-0.259924,-1.430116
1980-01-06T00:29:09.348688655Z,-1.332373,5.171476,7.030872,-1.210805,0.064315,-1.277784
1980-01-06T00:29:09.368550218Z,-1.587356,5.288792,7.308600,-1.205745,0.127299,-1.241565
1980-01-06T00:29:09.388421051Z,-1.842338,5.534197,7.998130,-1.152882,0.040879,-1.125451
1980-01-06T00:29:09.408302457Z,-2.200271,5.100847,8.007707,-1.035436,0.113717,-1.092428
1980-01-06T00:29:09.428161363Z,-2.340332,4.675876,8.122628,-1.038765,0.195742,-1.030643
1980-01-06T00:29:09.448026988Z,-2.549825,4.598064,8.309377,-1.046488,0.148871,-0.915594
1980-01-06T00:29:09.487789645Z,-2.503138,4.592079,8.773851,-1.095490,0.359793,-0.811198
1980-01-06T00:29:09.507624280Z,-2.560599,4.394557,9.132981,-1.115464,0.244877,-0.689758
1980-01-06T00:29:09.527500686Z,-2.734178,4.355053,9.453805,-1.158341,0.293214,-0.633299
1980-01-06T00:29:09.547371311Z,-3.272874,3.919308,8.180089,-1.100950,0.351004,-0.565122
1980-01-06T00:29:09.567266520Z,-2.978387,3.863045,9.913491,-1.014663,0.262055,-0.519316
1980-01-06T00:29:09.587154020Z,-3.078943,3.915717,9.827300,-1.164866,0.172839,-0.328634
1980-01-06T00:29:09.646745270Z,-2.722207,3.536236,10.641329,-0.990961,0.213319,-0.060187
1980-01-06T00:29:09.666597561Z,-2.566584,3.065775,10.813711,-0.961134,0.234358,0.010120
1980-01-06T00:29:09.686489332Z,-2.697068,2.839523,10.856807,-0.741423,0.268180,-0.002663
1980-01-06T00:29:09.706353811Z,-3.215413,2.929306,10.751462,-0.778841,0.253932,0.120907
1980-01-06T00:29:09.726214749Z,-3.104083,3.059790,11.115380,-0.711995,0.187353,0.253000
1980-01-06T00:29:09.746108707Z,-2.993949,2.816778,10.866384,-0.667388,0.189084,0.382962
1980-01-06T00:29:09.805724697Z,-2.706645,2.171541,10.852018,-0.512658,0.114782,0.616255
1980-01-06T00:29:09.825563447Z,-2.456451,1.690306,10.919056,-0.534629,0.118777,0.676975
1980-01-06T00:29:09.845486051Z,-2.014721,1.763330,11.244668,-0.587892,0.235157,0.727042
1980-01-06T00:29:09.865317405Z,-1.509544,1.695095,11.330859,-0.501473,0.363255,0.746217
1980-01-06T00:29:09.885203603Z,-1.186327,1.777695,11.259033,-0.415053,0.416119,0.721716
1980-01-06T00:29:09.905048342Z,-1.187524,1.830367,11.096227,-0.328101,0.322908,0.707868
1980-01-06T00:29:09.944794592Z,-1.431733,1.248576,10.737097,-0.302135,0.178165,0.739826
1980-01-06T00:29:09.964644905Z,-1.531092,1.072602,10.598233,-0.252734,0.284958,0.722781
1980-01-06T00:29:09.984502769Z,-1.119289,1.128866,10.684424,-0.266982,0.276036,0.736630
1980-01-06T00:29:10.004418759Z,-1.017536,1.084573,10.559926,-0.268313,0.186821,0.735564
1980-01-06T00:29:10.024266884Z,-1.064223,1.004368,10.368390,-0.229964,0.152865,0.721716
1980-01-06T00:29:10.044124592Z,-0.731429,0.712275,10.291776,-0.251269,0.096673,0.695084
1980-01-06T00:29:10.064007874Z,-0.587777,0.706290,10.219949,-0.297475,0.030626,0.690823
1980-01-06T00:29:10.103761051Z,-0.168791,0.909797,10.387544,-0.205463,0.218379,0.607733
1980-01-06T00:29:10.123603967Z,-0.148441,0.948104,10.344448,-0.129030,0.202400,0.538491
1980-01-06T00:29:10.143486988Z,-0.258574,0.778116,10.176853,-0.095741,0.131294,0.496945
1980-01-06T00:29:10.163327978Z,0.010774,0.556652,10.176853,-0.100534,0.074568,0.422377
1980-01-06T00:29:10.183209905Z,0.034716,0.538695,10.152911,-0.093876,-0.043143,0.328634
1980-01-06T00:29:10.203097926Z,-0.254982,0.525527,10.143334,-0.088417,-0.102665,0.244478
1980-01-06T00:29:10.262674644Z,-0.482432,0.578200,9.707590,-0.033955,0.204531,0.062318
1980-01-06T00:29:10.282544905Z,-0.197522,0.372298,9.602245,-0.077098,0.094143,-0.026099
1980-01-06T00:29:10.302437665Z,0.421380,0.420182,9.501689,-0.198938,-0.235290,-0.147539
1980-01-06T00:29:10.322317144Z,0.468066,0.621295,9.578303,-0.250736,-0.568718,-0.251935
1980-01-06T00:29:10.342195738Z,0.355539,0.544681,9.324518,-0.262055,-0.560861,-0.327569
1980-01-06T00:29:10.362067821Z,0.591368,0.430956,9.314941,-0.252201,-0.310258,-0.421312
1980-01-06T00:29:10.421706311Z,1.138443,-0.125696,10.512042,-0.344613,-0.283760,-0.720651
1980-01-06T00:29:10.441580373Z,1.036689,-0.260968,10.727520,-0.276170,-0.209324,-0.844221
1980-01-06T00:29:10.461390269Z,0.796072,-0.426168,10.923844,-0.184956,-0.043276,-0.961400
1980-01-06T00:29:10.481273082Z,0.442927,-0.489614,11.302129,-0.122772,0.085887,-1.025316
1980-01-06T00:29:10.501146050Z,0.138864,-0.436942,11.785757,-0.075101,0.147805,-1.084971
1980-01-06T00:29:10.560759019Z,-0.423774,-0.093374,13.002011,0.190549,-0.126367,-1.244760
1980-01-06T00:29:10.580643342Z,-0.865504,-0.335188,13.370719,0.313454,-0.163651,-1.319329
1980-01-06T00:29:10.600537925Z,-1.414973,-0.028730,13.437757,0.485361,-0.242614,-1.345960
1980-01-06T00:29:10.620357613Z,-1.696292,0.175974,13.370719,0.640223,-0.174304,-1.324655
1980-01-06T00:29:10.640261311Z,-2.074576,0.272939,13.643658,0.821451,-0.050733,-1.274588
1980-01-06T00:29:10.660153863Z,-2.460042,0.411803,13.988422,0.912531,-0.081759,-1.187236
1980-01-06T00:29:10.719700790Z,-3.464410,1.569399,13.351565,1.420795,-0.111720,-0.963531
1980-01-06T00:29:10.739617665Z,-4.084508,2.051831,13.155240,1.513873,-0.113717,-0.859135
1980-01-06T00:29:10.759454696Z,-4.890157,2.458845,12.647670,1.545165,-0.082292,-0.719586
1980-01-06T00:29:10.779321727Z,-5.695806,2.759317,12.480076,1.847034,-0.122239,-0.534230
1980-01-06T00:29:10.799182092Z,-6.418855,2.576161,11.488876,1.819337,0.012117,-0.294545
1980-01-06T00:29:10.819068655Z,-6.490681,2.774880,10.852018,2.109888,0.047804,-0.117712
1980-01-06T00:29:10.878678863Z,-5.792771,3.022680,8.649353,1.987116,-0.097605,0.569383
1980-01-06T00:29:10.898538186Z,-5.730522,3.338714,7.413945,1.875263,-0.065247,0.766457
1980-01-06T00:29:10.918406779Z,-5.464766,3.282450,6.264728,1.754356,0.014115,0.968857
1980-01-06T00:29:10.938264071Z,-4.449624,3.943250,6.484994,1.624127,0.093876,1.124386
1980-01-06T00:29:10.958124800Z,-4.575319,3.878607,5.287894,1.260340,0.122372,1.302285
1980-01-06T00:29:10.978220790Z,-3.932476,4.333505,5.216068,1.214267,0.003862,1.485510
1980-01-06T00:29:11.037626779Z,-3.597288,4.614824,4.277541,1.036368,-0.270577,1.749695
1980-01-06T00:29:11.057514384Z,-3.289633,3.909731,3.477877,0.892291,-0.217980,1.880723
1980-01-06T00:29:11.077384540Z,-2.239776,3.396175,3.382109,0.637294,-0.041279,2.055426
1980-01-06T00:29:11.097252717Z,-1.164779,3.497929,3.918410,0.357929,0.223040,2.175801
1980-01-06T00:29:11.117077144Z,-0.335188,3.793612,4.224868,0.326903,0.330232,2.192845
1980-01-06T00:29:11.176722561Z,1.389834,2.986767,3.626318,0.201867,0.205862,2.128929
1980-01-06T00:29:11.196609800Z,1.549049,3.124433,3.291130,0.076300,0.399208,2.127864
1980-01-06T00:29:11.216467040Z,1.678335,3.010709,2.946364,0.009321,0.585895,2.120407
1980-01-06T00:29:11.236349696Z,2.304419,2.851494,2.960730,-0.066978,0.703207,2.084188
1980-01-06T00:29:11.256192873Z,2.548628,2.845509,2.592023,-0.121840,0.701876,2.063948
1980-01-06T00:29:11.276054331Z,2.583344,2.607286,2.309507,-0.191747,0.656868,2.100167
1980-01-06T00:29:11.335708967Z,4.626795,1.569399,4.732439,-0.964996,0.936100,1.891375
1980-01-06T00:29:11.355528811Z,4.853047,1.159991,5.216068,-0.877777,1.081642,1.623994
1980-01-06T00:29:11.375438446Z,4.985925,0.946907,6.451476,-0.935967,1.121057,1.414137
1980-01-06T00:29:11.395318498Z,5.099649,1.139640,6.949470,-0.998951,1.161936,1.228781
1980-01-06T00:29:11.415160790Z,4.677073,1.137246,7.000646,-0.922252,1.303616,0.972586
1980-01-06T00:29:11.435027821Z,4.235343,0.999579,7.110779,-0.991760,1.347558,0.798948
1980-01-06T00:29:11.474799696Z,4.134786,0.814029,9.380483,-1.175252,1.283509,0.581634
1980-01-06T00:29:11.494637925Z,3.894169,1.167173,9.021352,-0.917991,1.553021,0.303600
1980-01-06T00:29:11.514514696Z,3.643975,0.818817,8.844181,-0.766191,1.733583,0.066046
1980-01-06T00:29:11.534421415Z,3.708618,0.735020,9.658210,-0.964330,1.570997,-0.141680
1980-01-06T00:29:11.554235842Z,3.252523,1.515530,10.012551,-1.045290,1.267530,-0.304665
1980-01-06T00:29:11.574125790Z,2.294842,1.587356,9.500193,-0.809201,1.219993,-0.517718
1980-01-06T00:29:11.594026050Z,1.528698,1.052252,9.097966,-0.625975,1.259408,-0.738228
1980-01-06T00:29:11.633727092Z,1.279701,-0.543484,9.653421,-0.966727,1.304415,-0.882038
1980-01-06T00:29:11.653588342Z,1.598130,0.158017,10.424355,-1.041828,1.470463,-1.076981
1980-01-06T00:29:11.673470008Z,1.587356,0.335188,11.492168,-0.982839,1.215732,-1.185638
1980-01-06T00:29:11.693350529Z,1.545457,-0.245406,11.722012,-0.872185,0.955009,-1.362472
1980-01-06T00:29:11.713178029Z,1.297657,-0.939724,11.010036,-0.827310,0.893090,-1.580318
1980-01-06T00:29:11.733105008Z,1.085770,-0.910994,12.108675,-0.930241,0.871252,-1.686312
1980-01-06T00:29:11.792934123Z,0.047884,-0.995988,13.803770,-0.670184,0.608265,-2.123070
1980-01-06T00:29:11.812723498Z,-0.410606,-0.888249,14.512454,-0.620250,0.255264,-2.239184
1980-01-06T00:29:11.832633133Z,-0.873884,-0.859518,14.507666,-0.514389,0.021971,-2.286056
1980-01-06T00:29:11.852326415Z,-1.450886,-1.126472,14.268245,-0.384693,0.060587,-2.345710
1980-01-06T00:29:11.872175477Z,-1.777695,-0.978031,14.359224,-0.299472,0.078297,-2.302034
1980-01-06T00:29:11.892073498Z,-2.033874,-1.022324,14.277822,-0.119176,0.102132,-2.332927
1980-01-06T00:29:11.951646467Z,-3.768473,-0.948104,14.632164,0.073903,-0.622780,-2.181660
1980-01-06T00:29:11.971509540Z,-4.260482,-0.750582,14.656106,0.342083,-0.453003,-2.068742
1980-01-06T00:29:11.991420790Z,-4.009091,-0.513556,14.589068,0.561261,-0.214384,-1.950498
1980-01-06T00:29:12.011255685Z,-4.219780,-0.217872,14.526819,0.843156,-0.136620,-1.821601
1980-01-06T00:29:12.031330789Z,-4.429273,-0.313640,14.210784,1.159007,-0.188019,-1.732118
1980-01-06T00:29:12.051000529Z,-4.653131,-0.265756,13.913903,1.174054,-0.411325,-1.610678
1980-01-06T00:29:12.090726102Z,-5.363012,0.896629,13.114240,1.343564,-0.569383,-1.281512
1980-01-06T00:29:12.110627977Z,-5.580884,1.090559,12.692861,1.542368,-0.374174,-1.123853
1980-01-06T00:29:12.130475425Z,-5.612009,1.154005,12.223597,1.681785,-0.270044,-0.922518
1980-01-06T00:29:12.150323967Z,-5.772420,0.973243,12.075156,1.677923,-0.221708,-0.708400
1980-01-06T00:29:12.170240269Z,-6.047753,1.134852,11.127052,1.750361,-0.198938,-0.531567
1980-01-06T00:29:12.190284800Z,-6.060922,1.533486,11.208455,1.741440,-0.223439,-0.337689
1980-01-06T00:29:12.210021623Z,-6.157887,2.042254,9.915586,1.740774,-0.235690,-0.118244
1980-01-06T00:29:12.249685633Z,-5.360618,2.750938,9.317036,1.961150,-0.227434,0.220510
1980-01-06T00:29:12.269606987Z,-5.358223,3.071761,8.550891,1.885783,-0.195609,0.435693
1980-01-06T00:29:12.289411362Z,-4.938041,3.063381,7.794323,1.818671,-0.227301,0.616788
1980-01-06T00:29:12.309282248Z,-4.633977,3.076549,7.171831,1.633315,-0.307728,0.805339
1980-01-06T00:29:12.329190841Z,-4.429273,3.320758,6.482301,1.499092,-0.209457,0.941693
1980-01-06T00:29:12.349022352Z,-4.124012,3.575740,6.099229,1.372059,-0.137020,1.120657
1980-01-06T00:29:12.388787977Z,-2.999935,4.089296,5.946000,1.290966,0.002131,1.428518
1980-01-06T00:29:12.408625946Z,-2.898181,3.798401,5.213374,1.276985,0.041279,1.522262
1980-01-06T00:29:12.428529175Z,-2.601300,3.851074,5.129877,1.089099,0.120907,1.632516
1980-01-06T00:29:12.448367560Z,-2.227805,3.757699,5.176863,0.907738,0.067511,1.732118
1980-01-06T00:29:12.468255164Z,-1.703475,3.706224,5.330091,0.822250,-0.090015,1.809883
1980-01-06T00:29:12.488162716Z,-1.272518,3.677494,5.286996,0.902811,-0.278700,1.815209
1980-01-06T00:29:12.567638289Z,1.328782,3.561375,3.883994,0.339686,0.340219,2.020805
1980-01-06T00:29:12.587507248Z,2.041057,3.719392,4.161721,0.278966,0.502005,1.986717
1980-01-06T00:29:12.607315008Z,2.750938,3.591303,4.707599,0.209058,0.451805,1.987782
1980-01-06T00:29:12.627225893Z,3.112462,3.283648,4.678869,0.124236,0.503736,1.874864
1980-01-06T00:29:12.647110998Z,3.086126,3.190274,4.535216,0.064715,0.520514,1.773664
1980-01-06T00:29:12.667007560Z,2.991555,2.993949,4.487332,-0.050067,0.572712,1.711879
1980-01-06T00:29:12.687039279Z,3.049016,3.083732,5.162498,-0.166048,0.648745,1.745967
1980-01-06T00:29:12.706704279Z,3.076549,2.783259,5.387552,-0.151534,1.000149,1.683116
1980-01-06T00:29:12.726570893Z,3.044227,2.679112,5.650915,-0.176567,1.251818,1.592569
1980-01-06T00:29:12.746436466Z,3.098097,1.950077,6.177639,-0.298673,1.174719,1.513739
1980-01-06T00:29:12.766312508Z,3.446453,1.786075,6.891111,-0.578039,0.963398,1.447693
1980-01-06T00:29:12.786229331Z,3.863045,2.424129,6.953360,-0.744353,0.870986,1.315600
1980-01-06T00:29:12.806076362Z,4.368221,2.827552,6.938995,-0.738361,0.984969,1.161137
1980-01-06T00:29:12.865660320Z,4.707001,2.671929,6.919841,-0.756737,1.074052,0.645550
1980-01-06T00:29:12.885540425Z,4.262876,2.403779,7.757812,-0.944356,0.998285,0.545415
1980-01-06T00:29:12.905385945Z,3.651158,2.691083,7.978079,-0.874315,1.098953,0.369646
1980-01-06T00:29:12.925267247Z,2.827552,2.170344,8.107366,-0.681103,1.127581,0.117179
1980-01-06T00:29:12.945145425Z,2.331953,1.681927,8.322844,-0.795619,0.890560,0.014914
1980-01-06T00:29:13.004759591Z,2.025495,1.960851,9.213487,-0.780306,1.300420,-0.206661
1980-01-06T00:29:13.024603497Z,2.494758,1.501164,9.821614,-0.785765,1.255147,-0.339819
1980-01-06T00:29:13.044480477Z,2.540248,1.684321,9.831191,-0.835433,0.952346,-0.497478
1980-01-06T00:29:13.064344331Z,1.976413,1.960851,9.510367,-0.765525,0.747282,-0.668985
1980-01-06T00:29:13.084235164Z,1.169568,1.731008,9.218275,-0.683766,0.705737,-0.823449
1980-01-06T00:29:13.104112872Z,0.773327,1.375469,9.519944,-0.776843,0.685098,-0.901213
1980-01-06T00:29:13.163717716Z,-0.290895,1.009156,10.659584,-0.781238,0.826644,-1.040762
1980-01-06T00:29:13.183598810Z,-0.509965,0.567426,11.315596,-0.774846,0.558065,-1.096156
1980-01-06T00:29:13.203413029Z,-0.778116,0.854730,11.593323,-0.758734,0.275504,-1.082308
1980-01-06T00:29:13.223504122Z,-1.259350,1.045069,11.660361,-0.650077,0.217314,-0.991760
1980-01-06T00:29:13.243216935Z,-1.332373,1.052252,11.957242,-0.542086,0.412523,-0.939562
1980-01-06T00:29:13.263073237Z,-1.028310,0.738611,11.971607,-0.440620,0.678040,-1.059937
1980-01-06T00:29:13.322677351Z,-1.078588,0.566229,12.086529,-0.309859,-0.014781,-1.320927
1980-01-06T00:29:13.342531206Z,-1.860295,0.582988,11.818378,-0.243679,-0.102132,-1.296426
1980-01-06T00:29:13.362445216Z,-2.322376,0.646434,11.770494,-0.182426,-0.008788,-1.231445
1980-01-06T00:29:13.382297039Z,-2.127248,0.812831,11.535862,-0.108790,0.098004,-1.205878
1980-01-06T00:29:13.402137612Z,-1.832761,0.888249,11.329961,-0.016512,0.006392,-1.180312
1980-01-06T00:29:13.422065008Z,-2.000355,1.004368,11.449671,0.028629,-0.191614,-1.137701
1980-01-06T00:29:13.441623341Z,-2.248155,0.942118,11.320384,0.036086,-0.287488,-1.088699
1980-01-06T00:29:13.461743029Z,-2.220622,1.168370,11.218631,0.039548,-0.230496,-1.093493
1980-01-06T00:29:13.481643445Z,-2.322376,1.306037,11.180324,0.058989,-0.268180,-1.006141
1980-01-06T00:29:13.501702299Z,-2.501941,1.277307,11.065402,0.098537,-0.284159,-0.915594
1980-01-06T00:29:13.521364174Z,-2.638410,1.230620,10.825981,0.135821,-0.332362,-0.867657
1980-01-06T00:29:13.541225789Z,-2.952051,1.144428,10.629657,0.143278,-0.434761,-0.774979
1980-01-06T00:29:13.561126258Z,-2.948459,1.207875,10.452486,0.127299,-0.444481,-0.662061
1980-01-06T00:29:13.581062924Z,-2.803610,1.181539,10.275315,0.129030,-0.415053,-0.577905
1980-01-06T00:29:13.620706101Z,-2.519897,1.215057,9.978435,0.154863,-0.335824,-0.395745
1980-01-06T00:29:13.640792299Z,-2.413355,1.240196,10.083779,0.245810,-0.211455,-0.358461
1980-01-06T00:29:13.660439643Z,-2.151190,1.205481,9.700706,0.234092,-0.098537,-0.309459
1980-01-06T00:29:13.680381518Z,-1.915361,1.209072,9.418191,0.238885,-0.065913,-0.261522
1980-01-06T00:29:13.700191258Z,-1.741782,1.037886,9.298481,0.208126,-0.071506,-0.233825
1980-01-06T00:29:13.720052716Z,-1.487996,1.101333,9.341577,0.148338,-0.091879,-0.197606
1980-01-06T00:29:13.759806101Z,-1.258153,1.140837,9.394249,0.155395,0.007191,-0.151800
1980-01-06T00:29:13.779674643Z,-1.125275,1.183933,9.509171,0.198272,0.045407,-0.152865
1980-01-06T00:29:13.799535268Z,-1.181539,1.089362,9.463382,0.209990,-0.036618,-0.156061
1980-01-06T00:29:13.819409174Z,-1.255759,1.013944,9.204807,0.156993,-0.106926,-0.124103
1980-01-06T00:29:13.839271778Z,-1.248576,1.006762,9.104251,0.084555,-0.015713,-0.107059
1980-01-06T00:29:13.859136674Z,-1.084573,1.222240,9.209596,0.048869,0.080028,-0.084688
1980-01-06T00:29:13.879007195Z,-0.902614,1.248576,9.314941,0.039415,0.078563,-0.068710
1980-01-06T00:29:13.918819174Z,-1.137246,1.003170,9.319730,0.043676,-0.068044,-0.063383
1980-01-06T00:29:13.938603080Z,-1.212663,1.060631,9.324518,-0.011052,-0.079096,-0.048469
1980-01-06T00:29:13.958560424Z,-1.186327,1.119289,9.429863,-0.015446,-0.059255,-0.025034
1980-01-06T00:29:13.978384382Z,-1.182736,1.118092,9.410709,-0.001731,0.017710,-0.016512
1980-01-06T00:29:13.998250945Z,-1.017536,1.022324,9.420286,-0.010519,0.073237,-0.010120
1980-01-06T00:29:14.018156830Z,-0.988805,1.047463,9.611822,-0.005459,0.031159,-0.012251
1980-01-06T00:29:14.038176466Z,-1.001973,1.060631,9.549573,-0.005193,-0.009188,-0.029295
1980-01-06T00:29:14.058069955Z,-1.186327,1.006762,9.386767,-0.005593,-0.021572,-0.009055
1980-01-06T00:29:14.077953289Z,-1.144428,1.024718,9.377191,-0.025300,0.060986,0.001598
1980-01-06T00:29:14.097612820Z,-0.909797,1.139640,9.391556,-0.022371,0.099203,-0.002663
1980-01-06T00:29:14.117468028Z,-0.933739,1.143231,9.310153,0.009454,0.036086,0.006924
1980-01-06T00:29:14.137358757Z,-0.881066,0.999579,9.070732,-0.019574,0.006125,0.017577
1980-01-06T00:29:14.157199539Z,-0.660800,0.934936,8.970176,-0.055926,0.032091,-0.009055
1980-01-06T00:29:14.177092768Z,-0.499191,1.001973,8.898350,-0.071772,0.030759,-0.031425
1980-01-06T00:29:14.236731882Z,-0.365116,1.200692,8.496124,0.029295,-0.011718,-0.060187
1980-01-06T00:29:14.256576257Z,-0.290895,1.090559,8.103475,0.044608,-0.075501,-0.056992
1980-01-06T00:29:14.276422872Z,-0.430956,1.173159,8.103475,0.062451,-0.131693,-0.061253
1980-01-06T00:29:14.296285580Z,-0.521936,1.695095,8.069956,0.145675,-0.215316,0.053796
1980-01-06T00:29:14.316152976Z,-0.457293,1.491588,8.046014,0.275104,-0.296143,0.165648
1980-01-06T00:29:14.336012820Z,-0.330400,0.284910,7.576751,0.272707,-0.050866,-0.083623
1980-01-06T00:29:14.375784695Z,-0.390255,1.277307,8.160935,-0.124902,-0.104396,-0.326503
1980-01-06T00:29:14.395618028Z,-0.792481,1.096544,8.658930,-0.226502,-0.348208,-0.227434
1980-01-06T00:29:14.415500007Z,-1.394622,1.047463,9.223961,-0.261389,-0.314652,-0.128364
1980-01-06T00:29:14.435364851Z,-1.461660,0.612916,9.377191,-0.318647,0.071373,-0.243413
1980-01-06T00:29:14.455268653Z,-1.337162,0.895431,9.817723,-0.328501,0.242880,-0.248739
1980-01-06T00:29:14.475121257Z,-1.290475,1.077391,11.694777,-0.534363,0.187486,-0.200802
1980-01-06T00:29:14.534711622Z,-0.679953,0.721852,10.866384,-0.537425,-0.054861,-0.061253
1980-01-06T00:29:14.554575320Z,-1.584962,0.483629,11.330260,-0.390419,-0.174836,-0.048869
1980-01-06T00:29:14.574488653Z,-1.327585,0.652420,11.129148,-0.367250,-0.161787,0.003329
1980-01-06T00:29:14.594339539Z,-0.937330,0.591368,10.243293,-0.242481,-0.196941,0.019308
1980-01-06T00:29:14.614235945Z,-0.569820,0.046687,9.659107,-0.225836,-0.281895,-0.045673
1980-01-06T00:29:14.634050216Z,-0.705092,-0.335188,10.083779,-0.380033,-0.399607,-0.025034
1980-01-06T00:29:14.693665059Z,-1.758541,0.243011,7.167641,-0.434361,-2.237719,0.832503
1980-01-06T00:29:14.713536570Z,-0.945710,2.566584,5.127781,0.245011,0.018775,-0.683367
1980-01-06T00:29:14.733429122Z,-0.514753,-0.956484,7.387908,-0.076300,-0.028629,0.107059
1980-01-06T00:29:14.753289955Z,-0.377087,-0.172383,9.767744,0.025167,-0.008655,-0.002663
1980-01-06T00:29:14.773184851Z,-0.136469,-0.322020,9.882666,-0.021305,-0.025433,-0.013316
1980-01-06T00:29:14.793070945Z,-0.092177,-0.442927,9.504382,-0.011052,-0.032357,-0.014381
1980-01-06T00:29:14.832766309Z,0.059855,-0.429759,9.604939,0.032224,-0.017710,-0.017577
1980-01-06T00:29:14.852690007Z,-0.353145,-0.256180,9.710283,-0.020373,-0.024235,-0.002663
1980-01-06T00:29:14.872520580Z,0.164003,-0.129287,9.705495,0.020107,-0.026632,-0.014381
1980-01-06T00:29:14.892387507Z,-0.175974,-0.114922,9.988011,0.005726,-0.012783,-0.016512
1980-01-06T00:29:14.912260893Z,0.150835,-0.237026,9.552266,0.005726,-0.016512,-0.015446
1980-01-06T00:29:14.932317143Z,-0.028730,-0.215478,9.782109,0.001332,-0.003595,-0.014381
1980-01-06T00:29:14.952247872Z,-0.083797,-0.217872,9.753379,-0.002796,-0.010653,-0.015446
1980-01-06T00:29:14.991904486Z,-0.034716,-0.185551,9.762956,-0.000533,-0.008256,-0.014381
1980-01-06T00:29:15.011618445Z,-0.009577,-0.196325,9.719860,-0.001598,-0.009321,-0.014381
1980-01-06T00:29:15.031466101Z,-0.020351,-0.197522,9.724648,-0.000000,-0.008522,-0.015446
1980-01-06T00:29:15.051345007Z,-0.016759,-0.220267,9.748590,-0.002530,-0.008389,-0.014381
1980-01-06T00:29:15.071214903Z,-0.001197,-0.220267,9.724648,-0.004128,-0.007723,-0.014381
1980-01-06T00:29:15.091087038Z,-0.022745,-0.207098,9.743802,-0.002663,-0.008123,-0.014381
1980-01-06T00:29:15.111009486Z,-0.022745,-0.203507,9.753379,-0.002131,-0.007590,-0.014381
1980-01-06T00:29:15.150697767Z,-0.029928,-0.193930,9.743802,-0.003329,-0.008389,-0.015446
1980-01-06T00:29:15.170573601Z,-0.022745,-0.216675,9.743802,-0.002131,-0.008123,-0.014381
1980-01-06T00:29:15.190471361Z,-0.023942,-0.209493,9.743802,-0.002929,-0.009587,-0.015446
1980-01-06T00:29:15.210322559Z,-0.034716,-0.208296,9.743802,-0.003063,-0.008922,-0.014381
1980-01-06T00:29:15.230165997Z,-0.023942,-0.195127,9.739014,-0.001198,-0.008788,-0.014381
1980-01-06T00:29:15.250067455Z,-0.031125,-0.207098,9.724648,-0.001065,-0.007723,-0.014381
1980-01-06T00:29:15.289786882Z,-0.015562,-0.207098,9.739014,-0.000399,-0.008256,-0.014381
1980-01-06T00:29:15.309944642Z,-0.029928,-0.198719,9.734225,-0.001198,-0.007856,-0.014381
1980-01-06T00:29:15.329559590Z,-0.046687,-0.189142,9.734225,-0.001332,-0.007723,-0.014381
1980-01-06T00:29:15.349377142Z,-0.023942,-0.207098,9.743802,-0.001997,-0.009188,-0.014381
1980-01-06T00:29:15.369268080Z,-0.021548,-0.207098,9.729437,-0.000932,-0.009454,-0.015446
1980-01-06T00:29:15.389132455Z,-0.014365,-0.213084,9.739014,-0.000932,-0.009321,-0.014381
1980-01-06T00:29:15.409020215Z,-0.019154,-0.207098,9.743802,-0.000799,-0.009055,-0.014381
1980-01-06T00:29:15.448745528Z,-0.022745,-0.210690,9.729437,-0.001731,-0.009188,-0.014381
1980-01-06T00:29:15.468834122Z,0.004788,-0.204704,9.729437,-0.001598,-0.007989,-0.014381
1980-01-06T00:29:15.488780684Z,-0.025139,-0.216675,9.748590,-0.001065,-0.007723,-0.014381
1980-01-06T00:29:15.508348965Z,-0.025139,-0.189142,9.739613,-0.000932,-0.008922,-0.013848
1980-01-06T00:29:15.528216569Z,-0.026336,-0.165200,9.734824,-0.001598,-0.008922,-0.013848
1980-01-06T00:29:15.548109799Z,-0.027533,-0.215478,9.753978,-0.001731,-0.008655,-0.013848
1980-01-06T00:29:15.607714017Z,-0.026336,-0.190339,9.734824,-0.000932,-0.008788,-0.013848
1980-01-06T00:29:15.627560892Z,-0.017957,-0.201113,9.753978,-0.001332,-0.008522,-0.013848
1980-01-06T00:29:15.647459903Z,-0.019154,-0.184354,9.758766,-0.002397,-0.008256,-0.013848
1980-01-06T00:29:15.667317351Z,-0.004788,-0.195127,9.701305,-0.002796,-0.008256,-0.013848
1980-01-06T00:29:15.687197715Z,-0.002394,-0.196325,9.739613,-0.002530,-0.007723,-0.013848
1980-01-06T00:29:15.707023965Z,-0.033519,-0.215478,9.734824,-0.002397,-0.007856,-0.013848
1980-01-06T00:29:15.746824069Z,-0.011971,-0.225055,9.720459,-0.002397,-0.008522,-0.014914
1980-01-06T00:29:15.766677507Z,-0.010774,-0.219069,9.734824,-0.002264,-0.008922,-0.013848
1980-01-06T00:29:15.786541205Z,-0.003591,-0.197522,9.749189,-0.002663,-0.007723,-0.013848
1980-01-06T00:29:15.806427298Z,-0.022745,-0.189142,9.734824,-0.003329,-0.007723,-0.013848
1980-01-06T00:29:15.826254017Z,-0.015562,-0.198719,9.732430,-0.002397,-0.007590,-0.013848
1980-01-06T00:29:15.846363809Z,-0.035913,-0.189142,9.732430,-0.003595,-0.009321,-0.013848
1980-01-06T00:29:15.866010319Z,-0.034716,-0.207098,9.732430,-0.002530,-0.008522,-0.014914
1980-01-06T00:29:15.906019590Z,0.014365,-0.196325,9.718064,-0.003728,-0.008123,-0.013848
1980-01-06T00:29:15.925604694Z,-0.008380,-0.205901,9.732430,-0.002663,-0.008123,-0.013848
1980-01-06T00:29:15.945496361Z,-0.022745,-0.198719,9.732430,-0.004927,-0.007856,-0.013848
1980-01-06T00:29:15.965381725Z,-0.023942,-0.201113,9.722853,-0.003462,-0.007723,-0.013848
1980-01-06T00:29:15.985206725Z,-0.037110,-0.254982,9.607931,-0.001065,-0.006924,-0.013848
1980-01-06T00:29:16.005095371Z,-0.011971,-0.215478,9.732430,-0.002264,-0.009188,-0.013848
