timestamp,accel_x,accel_y,accel_z,gyro_x,gyro_y,gyro_z
1980-01-06T00:27:15.452684063Z,-0.027533,-0.244209,9.692925,-0.000266,-0.007191,-0.014381
1980-01-06T00:27:15.472550938Z,-0.029928,-0.219069,9.702502,-0.002663,-0.008522,-0.014381
1980-01-06T00:27:15.492420990Z,-0.037110,-0.208296,9.712079,-0.003196,-0.007457,-0.015446
1980-01-06T00:27:15.512285053Z,-0.025139,-0.204704,9.704597,-0.002131,-0.007590,-0.012783
1980-01-06T00:27:15.532200521Z,-0.001197,-0.210690,9.709386,-0.002530,-0.008922,-0.013848
1980-01-06T00:27:15.552044115Z,-0.013168,-0.207098,9.709386,-0.002796,-0.008389,-0.014914
1980-01-06T00:27:15.591840469Z,-0.032322,-0.211887,9.714174,-0.001198,-0.007856,-0.012783
1980-01-06T00:27:15.611628230Z,-0.015562,-0.203507,9.723751,-0.003063,-0.008922,-0.013848
1980-01-06T00:27:15.631565053Z,0.001197,-0.208296,9.699809,-0.003063,-0.007856,-0.013848
1980-01-06T00:27:15.651429844Z,-0.011971,-0.202310,9.709386,-0.001598,-0.008389,-0.013848
1980-01-06T00:27:15.671473646Z,-0.014365,-0.202310,9.718963,-0.001864,-0.008922,-0.013848
1980-01-06T00:27:15.691111563Z,-0.035913,-0.199916,9.718963,-0.001997,-0.008922,-0.012783
1980-01-06T00:27:15.711018073Z,-0.044293,-0.209493,9.718963,-0.003063,-0.009055,-0.013848
1980-01-06T00:27:15.750781928Z,0.009577,-0.217872,9.709386,-0.002397,-0.007989,-0.013848
1980-01-06T00:27:15.770608021Z,-0.010774,-0.220267,9.709386,-0.002264,-0.007590,-0.013848
1980-01-06T00:27:15.790495313Z,-0.020351,-0.198719,9.709386,-0.001332,-0.008522,-0.014914
1980-01-06T00:27:15.810366459Z,-0.032322,-0.197522,9.699809,-0.003063,-0.009055,-0.013848
1980-01-06T00:27:15.830234636Z,-0.029928,-0.219069,9.714174,-0.002663,-0.009188,-0.013848
1980-01-06T00:27:15.850106615Z,-0.010774,-0.215478,9.699809,-0.001731,-0.009587,-0.014914
1980-01-06T00:27:15.909718907Z,-0.025139,-0.198719,9.709386,-0.002264,-0.008389,-0.014914
1980-01-06T00:27:15.929570678Z,-0.023942,-0.204704,9.718963,-0.001198,-0.007590,-0.013848
1980-01-06T00:27:15.949667969Z,-0.016759,-0.202310,9.714174,-0.001465,-0.007856,-0.013848
1980-01-06T00:27:15.969292605Z,0.008380,-0.197522,9.699809,-0.001997,-0.008389,-0.014914
1980-01-06T00:27:15.989240000Z,-0.014365,-0.209493,9.714174,-0.001731,-0.007723,-0.012783
1980-01-06T00:27:16.009052865Z,-0.021548,-0.198719,9.723751,-0.002796,-0.007856,-0.013848
1980-01-06T00:27:16.029069896Z,-0.009577,-0.208296,9.714174,-0.003862,-0.007989,-0.013848
1980-01-06T00:27:16.068656771Z,0.000000,-0.211887,9.714174,-0.001332,-0.008123,-0.014914
1980-01-06T00:27:16.088559792Z,-0.017957,-0.211887,9.709386,-0.001731,-0.007989,-0.014914
1980-01-06T00:27:16.108391146Z,-0.007183,-0.204704,9.709386,-0.001997,-0.009055,-0.013848
1980-01-06T00:27:16.128301667Z,0.023942,-0.208296,9.714174,-0.003462,-0.008522,-0.014914
1980-01-06T00:27:16.148184844Z,-0.009577,-0.207098,9.714174,-0.002929,-0.008922,-0.013848
1980-01-06T00:27:16.168033334Z,-0.033519,-0.202310,9.714174,-0.001065,-0.008389,-0.014914
1980-01-06T00:27:16.207774792Z,-0.014365,-0.219069,9.714174,-0.001465,-0.007989,-0.013848
1980-01-06T00:27:16.227690782Z,0.004788,-0.202310,9.704597,-0.002397,-0.008522,-0.014914
1980-01-06T00:27:16.247518594Z,-0.348356,-0.239420,10.073304,-0.083756,-0.016645,-0.012783
1980-01-06T00:27:16.267383802Z,0.055067,0.076614,9.747693,-0.070574,-0.009987,-0.011718
1980-01-06T00:27:16.287265417Z,-0.043096,0.132878,10.044574,-0.014248,-0.014248,-0.015979
1980-01-06T00:27:16.307105261Z,-0.037110,-0.226252,9.757270,0.010120,-0.015979,-0.019175
1980-01-06T00:27:16.366713802Z,0.019154,-0.276530,9.666290,-0.034088,-0.003728,-0.020240
1980-01-06T00:27:16.386578125Z,0.007183,-0.152032,9.747693,-0.035154,-0.003862,-0.014914
1980-01-06T00:27:16.406514532Z,0.000000,-0.191536,9.728539,0.017311,-0.009055,-0.013848
1980-01-06T00:27:16.426323229Z,-0.011971,-0.232238,9.747693,0.016112,-0.004394,-0.009587
1980-01-06T00:27:16.446207865Z,-0.040701,-0.319626,9.680655,0.036086,-0.012384,-0.009587
1980-01-06T00:27:16.466068906Z,-0.014365,-0.191536,9.709386,0.044208,-0.007457,-0.003196
1980-01-06T00:27:16.505797969Z,-0.148441,-1.292869,9.920075,0.011718,0.010653,-0.182160
1980-01-06T00:27:16.525668281Z,1.015141,-0.083797,9.307159,-0.006125,0.031692,-0.242880
1980-01-06T00:27:16.565396979Z,0.035913,-0.310049,9.809942,-0.075367,0.050999,-0.003196
1980-01-06T00:27:16.585290417Z,0.019154,-0.506374,10.173861,-0.079628,0.142479,0.006392
1980-01-06T00:27:16.605149375Z,0.301669,-0.741005,10.274417,-0.108923,0.452604,-0.103331
1980-01-06T00:27:16.625046563Z,0.463278,-1.000776,9.872191,-0.202933,0.558065,-0.160855
1980-01-06T00:27:16.664782083Z,0.424971,-0.585382,10.030209,-0.312655,0.154596,-0.224771
1980-01-06T00:27:16.684609636Z,0.110133,-0.824802,9.905710,-0.196275,0.002264,-0.217314
1980-01-06T00:27:16.704497136Z,0.204704,-0.818817,10.173861,-0.160189,-0.107192,-0.225836
1980-01-06T00:27:16.724429011Z,0.032322,-0.799663,10.164284,-0.088017,-0.230763,-0.243945
1980-01-06T00:27:16.744334011Z,-0.135272,-0.866701,9.752481,-0.033955,-0.144476,-0.257794
1980-01-06T00:27:16.764156979Z,0.003591,-0.828394,9.661502,-0.041678,0.049268,-0.285491
1980-01-06T00:27:16.784028594Z,0.124498,-0.615310,9.896133,-0.041013,0.055926,-0.279099
1980-01-06T00:27:16.823760990Z,0.019154,-0.776918,9.819519,-0.064448,-0.007856,-0.317449
1980-01-06T00:27:16.843881458Z,-0.026336,-0.557849,9.953594,-0.107991,-0.025167,-0.331297
1980-01-06T00:27:16.863468177Z,-0.118513,-0.478840,10.039785,-0.082292,0.001864,-0.311057
1980-01-06T00:27:16.883351667Z,-0.064643,-0.559046,9.867403,-0.037284,0.127965,-0.348341
1980-01-06T00:27:16.903223542Z,-0.088585,-0.529119,9.805154,-0.005992,0.164716,-0.402670
1980-01-06T00:27:16.923357500Z,-0.219069,-0.689530,9.886557,-0.058323,0.023835,-0.402670
1980-01-06T00:27:16.982707865Z,-0.350751,-0.863110,10.102035,0.075234,0.190948,-0.454868
1980-01-06T00:27:17.002553438Z,-0.350751,-0.720655,10.245687,0.097871,0.108257,-0.454868
1980-01-06T00:27:17.022716979Z,-0.368707,-0.626084,9.900922,0.182426,0.125967,-0.487891
1980-01-06T00:27:17.042299167Z,-0.466869,-0.602142,9.786000,0.228233,0.143012,-0.481499
1980-01-06T00:27:17.062157813Z,-0.481235,-0.633266,9.623195,0.164317,0.106793,-0.429301
1980-01-06T00:27:17.082038333Z,-0.350751,-0.527921,9.766847,0.121307,0.083490,-0.403735
1980-01-06T00:27:17.121802083Z,-0.344765,-0.471658,9.819519,0.159790,0.008522,-0.380299
1980-01-06T00:27:17.141693542Z,-0.343568,-0.441730,9.848249,0.155662,-0.009454,-0.365385
1980-01-06T00:27:17.161508594Z,-0.269348,-0.438139,9.766847,0.142745,-0.005060,-0.380299
1980-01-06T00:27:17.181414896Z,-0.296881,-0.294487,9.795577,0.091213,-0.098936,-0.364320
1980-01-06T00:27:17.201303542Z,-0.396240,-0.178368,9.723751,0.074835,-0.157925,-0.356863
1980-01-06T00:27:17.221136615Z,-0.567426,-0.140061,9.742905,0.149936,-0.095075,-0.366451
1980-01-06T00:27:17.241013854Z,-0.694318,-0.280122,9.517850,0.161521,-0.002264,-0.343015
1980-01-06T00:27:17.280752344Z,-0.612916,-0.359130,9.718963,0.053663,-0.160056,-0.316383
1980-01-06T00:27:17.300620208Z,-1.055843,-0.323217,10.178649,0.088550,-0.246209,-0.295078
1980-01-06T00:27:17.320511562Z,-1.159991,-0.284910,9.987113,0.102132,-0.027031,-0.254598
1980-01-06T00:27:17.340367031Z,-0.762553,-0.219069,10.140342,0.134090,0.072571,-0.232227
1980-01-06T00:27:17.360217552Z,-0.434548,-0.262165,9.982325,0.116114,-0.091613,-0.230097
1980-01-06T00:27:17.380107917Z,-0.487220,-0.184354,9.752481,0.088017,-0.159390,-0.236489
1980-01-06T00:27:17.439939479Z,-0.156820,-0.183156,9.771635,0.145408,-0.062584,-0.219444
1980-01-06T00:27:17.459565260Z,-0.041899,-0.222661,9.800365,0.138351,-0.077365,-0.225836
1980-01-06T00:27:17.479468750Z,0.104148,-0.099359,9.867403,0.133025,-0.093743,-0.248206
1980-01-06T00:27:17.499324427Z,0.190339,-0.100556,9.853038,0.145009,-0.161787,-0.256729
1980-01-06T00:27:17.519217552Z,0.026336,-0.040701,9.762058,0.144210,-0.130095,-0.270577
1980-01-06T00:27:17.539089479Z,-0.086191,-0.009577,9.905710,0.137952,-0.085487,-0.260990
1980-01-06T00:27:17.598685469Z,-0.217872,0.094571,10.111611,0.169776,-0.242081,-0.271642
1980-01-06T00:27:17.618566927Z,-0.175974,0.159214,10.102035,0.183092,-0.215183,-0.266316
1980-01-06T00:27:17.638463125Z,-0.234632,0.246603,10.092458,0.191215,-0.174171,-0.236489
1980-01-06T00:27:17.658259948Z,-0.071826,0.379481,10.264840,0.231961,-0.071772,-0.205596
1980-01-06T00:27:17.678130625Z,0.117316,0.360327,10.283994,0.297741,-0.033822,-0.231162
1980-01-06T00:27:17.698023229Z,0.113725,0.304064,10.023624,0.276170,-0.126633,-0.237021
1980-01-06T00:27:17.737758333Z,-0.015562,0.481235,10.090662,0.253799,-0.127299,-0.253000
1980-01-06T00:27:17.757833177Z,-0.041899,0.423774,9.975740,0.274971,-0.095341,-0.249804
1980-01-06T00:27:17.777758906Z,0.076614,0.575805,9.999682,0.241016,-0.135555,-0.233825
1980-01-06T00:27:17.797343906Z,0.029928,0.767342,10.306141,0.273107,-0.186687,-0.219977
1980-01-06T00:27:17.817250573Z,-0.065841,0.768539,10.191218,0.372443,-0.150202,-0.246609
1980-01-06T00:27:17.837340781Z,-0.074220,0.748188,10.066720,0.356597,-0.192813,-0.234891
1980-01-06T00:27:17.896720208Z,0.023942,0.812831,9.994296,0.327702,-0.249804,-0.188418
1980-01-06T00:27:17.916625573Z,0.037110,0.845153,9.975142,0.298407,-0.206528,-0.146873
1980-01-06T00:27:17.936475104Z,0.197522,0.922965,10.023026,0.238486,-0.125967,-0.112785
1980-01-06T00:27:17.956341614Z,0.361524,1.091756,10.147525,0.317315,-0.076965,-0.154330
1980-01-06T00:27:17.976195729Z,0.257377,1.168370,9.927258,0.350472,-0.189484,-0.155395
1980-01-06T00:27:17.996061979Z,0.173580,1.051055,9.692626,0.329566,-0.260457,-0.128764
1980-01-06T00:27:18.055666770Z,0.343568,1.377863,9.740510,0.440486,-0.122372,-0.093610
1980-01-06T00:27:18.075564323Z,0.493206,1.472434,9.740510,0.431964,-0.153931,-0.085088
1980-01-06T00:27:18.095401093Z,0.442927,1.486799,9.572916,0.412790,-0.211055,-0.086153
1980-01-06T00:27:18.115291145Z,0.495600,1.572991,9.659107,0.372576,-0.174437,-0.093610
1980-01-06T00:27:18.135175416Z,0.689530,1.807622,9.783606,0.387490,-0.193079,-0.127698
1980-01-06T00:27:18.155023073Z,0.626084,2.035071,9.841066,0.441285,-0.280431,-0.138351
1980-01-06T00:27:18.175105260Z,0.500388,1.879448,9.568128,0.526906,-0.154863,-0.172440
1980-01-06T00:27:18.194966822Z,0.669179,1.879448,9.467571,0.531034,-0.088017,-0.153265
1980-01-06T00:27:18.214680208Z,0.820014,1.954866,9.390957,0.442617,-0.219311,-0.117046
1980-01-06T00:27:18.234700677Z,0.604536,2.048239,9.252093,0.365385,-0.297075,-0.122372
1980-01-06T00:27:18.254552500Z,0.426168,2.248155,9.429264,0.365652,-0.294146,-0.096806
1980-01-06T00:27:18.274430312Z,0.514753,2.361880,9.477148,0.416385,-0.272175,-0.073370
1980-01-06T00:27:18.294316354Z,0.667982,2.388216,9.390957,0.474442,-0.274572,-0.056326
1980-01-06T00:27:18.314196354Z,0.840365,2.418144,9.242517,0.451539,-0.261655,-0.040347
1980-01-06T00:27:18.353758385Z,0.827197,2.735375,9.419687,0.372443,-0.300138,-0.030759
1980-01-06T00:27:18.373604375Z,0.732626,2.798822,9.314342,0.383362,-0.311856,-0.010519
1980-01-06T00:27:18.393434218Z,0.742203,2.788048,9.213786,0.412124,-0.284292,0.019308
1980-01-06T00:27:18.413390677Z,0.952892,2.946065,9.041404,0.523577,-0.270577,0.016112
1980-01-06T00:27:18.433248906Z,0.970849,2.893393,9.003097,0.422111,-0.215982,0.024634
1980-01-06T00:27:18.453121093Z,0.952892,3.227384,9.041404,0.372310,-0.193745,0.048070
1980-01-06T00:27:18.512731562Z,0.997185,3.242946,8.940847,0.329566,-0.102132,0.083224
1980-01-06T00:27:18.532585989Z,0.991199,3.412935,8.988731,0.431165,-0.066446,0.082158
1980-01-06T00:27:18.552644999Z,1.084573,3.337517,8.960001,0.489622,-0.003862,0.078963
1980-01-06T00:27:18.572347499Z,1.151611,3.424906,8.816348,0.522245,-0.012783,0.090681
1980-01-06T00:27:18.592168802Z,1.088165,3.598485,8.596082,0.513191,-0.056326,0.093876
1980-01-06T00:27:18.612060677Z,1.053449,3.588908,8.485949,0.479901,-0.001731,0.104529
1980-01-06T00:27:18.671848593Z,1.300052,3.806781,8.782829,0.343814,0.181095,0.195076
1980-01-06T00:27:18.691494426Z,1.240196,3.915717,8.916905,0.346078,0.080161,0.196142
1980-01-06T00:27:18.711396249Z,1.339556,3.942053,8.960001,0.349806,-0.008522,0.196142
1980-01-06T00:27:18.731283854Z,1.127669,3.937265,8.888175,0.383095,-0.032624,0.207860
1980-01-06T00:27:18.751352864Z,1.066617,3.913323,8.725368,0.380832,0.014381,0.243013
1980-01-06T00:27:18.771043437Z,1.307234,3.839103,8.639177,0.376437,0.041279,0.216382
1980-01-06T00:27:18.810800051Z,1.423353,4.329914,8.781632,0.378435,-0.364320,0.254065
1980-01-06T00:27:18.830626458Z,1.343147,4.056975,8.379407,0.473510,-0.348341,0.228499
1980-01-06T00:27:18.850465781Z,1.608904,4.012682,8.053795,0.463789,-0.167380,0.165648
1980-01-06T00:27:18.870367083Z,1.699883,4.267664,7.991546,0.385226,-0.180429,0.214651
1980-01-06T00:27:18.890247135Z,1.723825,4.274847,7.886201,0.337422,-0.130228,0.211455
1980-01-06T00:27:18.910119687Z,1.735796,4.548983,8.240543,0.326770,-0.063117,0.219977
1980-01-06T00:27:18.969710468Z,1.891419,4.554969,7.871836,0.342349,-0.121973,0.247674
1980-01-06T00:27:18.989581249Z,1.954866,4.619612,7.862259,0.290018,-0.068976,0.235956
1980-01-06T00:27:19.009519478Z,1.891419,4.624401,7.814375,0.224504,-0.096673,0.246609
1980-01-06T00:27:19.029328541Z,1.924938,4.764462,7.881413,0.138085,-0.110122,0.280697
1980-01-06T00:27:19.049207343Z,1.868674,4.923676,8.058583,0.181095,-0.001198,0.297741
1980-01-06T00:27:19.069046770Z,1.719037,5.012261,7.943662,0.243945,0.076699,0.343547
1980-01-06T00:27:19.128681458Z,2.023100,4.899734,7.536648,0.238086,0.284692,0.422377
1980-01-06T00:27:19.148535103Z,1.940500,4.717774,7.584532,0.160322,0.133824,0.438356
1980-01-06T00:27:19.168396562Z,1.824382,5.025429,7.847894,0.140082,0.089615,0.450074
1980-01-06T00:27:19.188266041Z,1.697489,5.110424,7.795221,0.249139,0.169776,0.475640
1980-01-06T00:27:19.208169478Z,1.505953,4.912902,7.603685,0.338487,0.353934,0.525708
1980-01-06T00:27:19.228024322Z,1.868674,4.493917,7.474399,0.266982,0.473510,0.540621
1980-01-06T00:27:19.267750051Z,2.190695,4.704607,7.785645,0.090681,0.179896,0.456465
1980-01-06T00:27:19.287625364Z,1.939303,4.766856,7.766491,0.109456,0.053263,0.442617
1980-01-06T00:27:19.307534791Z,1.826776,4.720169,7.694665,0.127698,0.074435,0.475640
1980-01-06T00:27:19.327401666Z,1.824382,4.659117,7.661146,0.150602,0.222107,0.502272
1980-01-06T00:27:19.347437395Z,1.951274,4.617218,7.756914,0.137286,0.355399,0.532099
1980-01-06T00:27:19.367146353Z,2.068590,4.777629,7.934085,0.146607,0.392816,0.562992
1980-01-06T00:27:19.426745416Z,2.449268,4.630386,7.670723,0.067112,0.101200,0.518251
1980-01-06T00:27:19.446605520Z,2.329558,4.820725,7.843105,0.075767,0.099602,0.520381
1980-01-06T00:27:19.466467239Z,2.387019,4.876989,7.972393,0.107592,0.145142,0.540621
1980-01-06T00:27:19.486354166Z,2.492364,4.660314,7.938874,0.137286,0.166314,0.543817
1980-01-06T00:27:19.506230468Z,2.534262,4.477157,7.852682,0.136354,0.207593,0.532099
1980-01-06T00:27:19.526065832Z,2.481590,4.520253,7.737761,0.114649,0.277102,0.498011
1980-01-06T00:27:19.585699166Z,2.099715,4.721366,7.910143,0.158591,0.601075,0.547013
1980-01-06T00:27:19.605573853Z,2.085350,4.705803,7.752126,0.134889,0.610795,0.583232
1980-01-06T00:27:19.625455416Z,2.473210,4.624401,7.843105,0.079096,0.532232,0.556600
1980-01-06T00:27:19.645284374Z,2.542642,4.675876,7.785645,0.022770,0.302002,0.544882
1980-01-06T00:27:19.665199895Z,2.528277,4.762067,7.718607,-0.017976,0.205330,0.503337
1980-01-06T00:27:19.685071509Z,2.456451,4.891354,7.857471,-0.016112,0.159523,0.524642
1980-01-06T00:27:19.744642291Z,2.437297,4.614824,7.723395,-0.001065,0.290817,0.559796
1980-01-06T00:27:19.764527343Z,2.440889,4.526238,7.809587,-0.030227,0.263653,0.554470
1980-01-06T00:27:19.784405364Z,2.395399,4.405331,7.934085,-0.037817,0.280963,0.551274
1980-01-06T00:27:19.804265416Z,2.272097,4.516662,8.029853,-0.014115,0.283227,0.561926
1980-01-06T00:27:19.824369166Z,2.250550,4.315548,7.938874,0.038616,0.288553,0.560861
1980-01-06T00:27:19.883714739Z,2.090138,4.067749,7.795221,0.015047,0.242214,0.536360
1980-01-06T00:27:19.923539218Z,2.126051,4.466383,7.843105,-0.014781,0.258460,0.591754
1980-01-06T00:27:19.943448280Z,2.100912,4.370615,7.766491,0.001997,0.358062,0.633299
1980-01-06T00:27:19.963203593Z,2.293645,4.289212,7.800010,-0.003462,0.463789,0.659931
1980-01-06T00:27:19.983071718Z,2.481590,4.181473,7.857471,-0.068310,0.450207,0.669518
1980-01-06T00:27:20.042695884Z,2.394202,3.878607,7.996335,-0.112252,0.223040,0.557665
1980-01-06T00:27:20.062571353Z,2.169147,3.751714,7.991546,-0.194943,0.207593,0.557665
1980-01-06T00:27:20.082435363Z,2.120066,3.863045,8.317158,-0.202400,0.252201,0.582166
1980-01-06T00:27:20.102340936Z,2.184709,3.691859,8.398561,-0.172573,0.345811,0.606668
1980-01-06T00:27:20.122196926Z,2.274492,3.624821,8.470387,-0.150468,0.397743,0.608798
1980-01-06T00:27:20.142059426Z,2.313996,3.567361,8.489540,-0.129829,0.350738,0.616255
1980-01-06T00:27:20.162046353Z,2.324770,3.450045,8.547001,-0.135022,0.320777,0.608798
1980-01-06T00:27:20.201653072Z,2.149993,3.156755,8.288427,-0.093344,0.337289,0.598145
1980-01-06T00:27:20.221539165Z,2.238579,3.277662,8.537424,-0.170176,0.354600,0.610929
1980-01-06T00:27:20.241408801Z,2.268506,3.117251,8.676288,-0.133025,0.372842,0.639691
1980-01-06T00:27:20.261278905Z,2.302025,2.826355,8.547001,-0.042477,0.493350,0.632234
1980-01-06T00:27:20.281120728Z,2.282871,2.645593,8.566154,-0.009854,0.556600,0.656735
1980-01-06T00:27:20.301034478Z,2.378639,2.916138,8.724172,-0.033423,0.567120,0.607733
1980-01-06T00:27:20.340729530Z,2.675520,2.947262,8.800786,-0.136487,0.188152,0.495880
1980-01-06T00:27:20.360614634Z,2.560599,2.975993,8.786421,-0.133424,0.092944,0.461792
1980-01-06T00:27:20.380476457Z,2.466028,2.972401,8.896554,-0.165249,0.126101,0.453270
1980-01-06T00:27:20.400368853Z,2.359486,3.051410,9.001899,-0.183625,0.197473,0.471379
1980-01-06T00:27:20.420243280Z,2.359486,2.931700,8.934861,-0.154064,0.261123,0.494815
1980-01-06T00:27:20.440081040Z,2.345121,2.931700,8.872612,-0.158192,0.340219,0.486293
1980-01-06T00:27:20.499736978Z,2.416947,2.697068,9.150340,-0.248872,0.145675,0.390419
1980-01-06T00:27:20.519584738Z,2.213439,2.486378,9.188647,-0.245676,0.147938,0.361657
1980-01-06T00:27:20.539464582Z,2.197877,2.547431,9.327511,-0.228366,0.227434,0.353135
1980-01-06T00:27:20.559316613Z,2.260126,2.710236,9.389760,-0.180828,0.290950,0.356331
1980-01-06T00:27:20.579190311Z,2.309207,2.525883,9.250896,-0.098004,0.296143,0.324373
1980-01-06T00:27:20.599081613Z,2.345121,2.455254,9.250896,-0.118377,0.254997,0.315851
1980-01-06T00:27:20.658716249Z,2.024297,2.404976,8.977957,-0.052331,0.183891,0.206128
1980-01-06T00:27:20.678548905Z,1.965640,2.437297,8.906131,-0.108391,0.203465,0.224238
1980-01-06T00:27:20.698421301Z,1.930924,2.519897,8.762479,-0.082292,0.291483,0.230630
1980-01-06T00:27:20.718296301Z,1.885434,2.625242,8.719383,-0.083623,0.343681,0.225303
1980-01-06T00:27:20.738139999Z,1.910573,2.572570,8.752902,-0.136221,0.278566,0.226369
1980-01-06T00:27:20.758007342Z,1.752556,2.409764,8.977957,-0.172573,0.256862,0.227434
1980-01-06T00:27:20.817659738Z,1.820790,2.473210,9.265262,-0.184823,0.276036,0.172040
1980-01-06T00:27:20.837515103Z,1.690306,2.361880,9.432856,-0.189351,0.181761,0.167779
1980-01-06T00:27:20.857369217Z,1.570596,2.329558,9.270050,-0.153931,0.219577,0.133691
1980-01-06T00:27:20.877261144Z,1.400608,2.161964,9.212589,-0.131826,0.224771,0.112385
1980-01-06T00:27:20.897114165Z,1.434127,2.021903,9.384972,-0.209724,0.206262,0.148604
1980-01-06T00:27:20.956740467Z,1.401805,2.037466,9.332299,-0.125568,0.334626,0.097472
1980-01-06T00:27:20.976596405Z,1.388637,1.904588,9.490316,-0.130894,0.283893,0.081493
1980-01-06T00:27:20.996491040Z,1.276109,1.932121,9.461586,-0.099336,0.268313,0.045274
1980-01-06T00:27:21.016338801Z,1.007959,2.025495,9.250896,-0.065514,0.236489,0.017577
1980-01-06T00:27:21.036240259Z,0.974440,1.962048,9.135975,-0.084289,0.233293,0.019707
1980-01-06T00:27:21.056074686Z,1.066617,1.916559,9.456798,-0.143544,0.213053,0.034621
1980-01-06T00:27:21.115702238Z,0.922965,1.877054,9.068338,-0.120108,0.400672,-0.003728
1980-01-06T00:27:21.135583696Z,0.925359,2.027889,9.370008,-0.230230,0.349673,0.002663
1980-01-06T00:27:21.155611040Z,0.823605,2.068590,9.441833,-0.249538,0.293880,-0.012251
1980-01-06T00:27:21.175483748Z,0.605733,1.905785,9.154530,-0.217580,0.350072,-0.085754
1980-01-06T00:27:21.195385467Z,0.628478,1.601721,9.101857,-0.282827,0.246609,-0.108124
1980-01-06T00:27:21.215080051Z,0.665588,1.539472,9.307758,-0.414254,0.102132,-0.084688
1980-01-06T00:27:21.254796353Z,0.505177,1.617283,9.398738,-0.354333,0.188685,-0.095341
1980-01-06T00:27:21.274649373Z,0.763750,1.391031,9.604639,-0.326237,0.236622,-0.068710
1980-01-06T00:27:21.294522655Z,0.758962,1.404199,9.714772,-0.282295,0.301470,-0.094276
1980-01-06T00:27:21.314426665Z,0.537498,1.368286,9.580697,-0.232494,0.308261,-0.129430
1980-01-06T00:27:21.334250675Z,0.344765,1.128866,9.417892,-0.242481,0.283227,-0.158192
1980-01-06T00:27:21.354129686Z,0.258574,0.760159,9.293393,-0.423575,0.306530,-0.137952
1980-01-06T00:27:21.374015832Z,0.323217,0.972046,10.145729,-0.243679,0.297075,-0.202933
1980-01-06T00:27:21.413794373Z,0.076614,1.101333,9.657910,-0.174703,0.356996,-0.223173
1980-01-06T00:27:21.433602030Z,0.094571,1.030704,9.729736,-0.216781,0.300937,-0.199737
1980-01-06T00:27:21.453455467Z,0.167594,0.957681,9.815928,-0.174703,0.329300,-0.233825
1980-01-06T00:27:21.473371092Z,0.094571,0.957681,9.696218,-0.106127,0.371244,-0.286023
1980-01-06T00:27:21.493241040Z,-0.160412,0.922965,9.643545,-0.113051,0.344346,-0.323307
1980-01-06T00:27:21.513105780Z,-0.256180,0.867898,10.021829,-0.202533,0.261789,-0.316916
1980-01-06T00:27:21.572686613Z,-0.451307,0.854730,10.045771,-0.127832,0.335824,-0.369114
1980-01-06T00:27:21.592591561Z,-0.594959,0.806846,10.127174,-0.106393,0.324240,-0.369114
1980-01-06T00:27:21.612447707Z,-0.665588,0.702698,10.219949,-0.116247,0.270444,-0.367516
1980-01-06T00:27:21.632301040Z,-0.615310,0.743400,10.004471,-0.151001,0.268580,-0.387756
1980-01-06T00:27:21.652155519Z,-0.695516,0.954089,9.865607,-0.122106,0.277368,-0.413322
1980-01-06T00:27:21.672058123Z,-0.954089,0.857124,9.788993,-0.122638,0.219045,-0.412257
1980-01-06T00:27:21.692148384Z,-1.154005,0.739808,9.884761,-0.181095,0.170176,-0.418649
1980-01-06T00:27:21.712005050Z,-1.074997,0.796072,9.865607,-0.203332,0.127565,-0.407996
1980-01-06T00:27:21.731663852Z,-1.090559,0.679953,9.640553,-0.201202,0.121041,-0.383495
1980-01-06T00:27:21.751515727Z,-1.156399,0.541090,9.611822,-0.190682,0.177100,-0.378169
1980-01-06T00:27:21.771429738Z,-1.119289,0.429759,9.836877,-0.217181,0.259125,-0.377103
1980-01-06T00:27:21.791305779Z,-1.100136,0.447716,9.846454,-0.191082,0.276702,-0.383495
1980-01-06T00:27:21.811266873Z,-1.283292,0.359130,9.784204,-0.105861,0.218778,-0.403735
1980-01-06T00:27:21.831036509Z,-1.312023,0.284910,9.798570,-0.049002,0.138351,-0.411192
1980-01-06T00:27:21.870753904Z,-0.876278,0.320823,9.760262,-0.103464,0.068177,-0.518783
1980-01-06T00:27:21.890646769Z,-1.078588,0.538695,9.760262,-0.106926,0.009587,-0.545415
1980-01-06T00:27:21.910510467Z,-1.280898,0.458490,9.894338,-0.137020,-0.054994,-0.517718
1980-01-06T00:27:21.930372915Z,-1.514333,0.379481,9.803358,-0.083756,-0.063117,-0.487891
1980-01-06T00:27:21.950438175Z,-1.582567,0.193930,9.554361,-0.018109,0.004661,-0.463390
1980-01-06T00:27:21.970287081Z,-1.460463,0.169988,9.525631,-0.026898,0.099070,-0.452737
1980-01-06T00:27:21.990287706Z,-1.283292,0.090980,9.602245,-0.105594,0.145142,-0.425040
1980-01-06T00:27:22.029726040Z,-1.282095,0.131681,9.769839,-0.182027,0.134623,-0.466585
1980-01-06T00:27:22.049569425Z,-1.450886,0.239420,10.023624,-0.105994,0.040081,-0.437823
1980-01-06T00:27:22.069427967Z,-1.437718,0.076614,9.923068,-0.041412,0.082957,-0.426105
1980-01-06T00:27:22.089350884Z,-1.339556,-0.001197,9.846454,-0.026232,0.194810,-0.479369
1980-01-06T00:27:22.109185102Z,-1.386243,0.110133,9.812935,-0.059788,0.138484,-0.469781
1980-01-06T00:27:22.129047811Z,-1.489193,0.053870,9.822512,-0.072837,0.076433,-0.451672
1980-01-06T00:27:22.168788227Z,-1.546654,0.136469,9.913491,-0.111720,0.028496,-0.467651
1980-01-06T00:27:22.188661665Z,-1.586159,0.015562,9.975740,-0.085487,-0.076433,-0.446345
1980-01-06T00:27:22.208535623Z,-1.661576,-0.312443,9.899126,-0.055926,-0.079096,-0.459129
1980-01-06T00:27:22.228376873Z,-1.477222,-0.181959,9.879972,-0.075634,-0.016245,-0.461259
1980-01-06T00:27:22.248274529Z,-1.485602,-0.112527,9.798570,-0.042611,0.038882,-0.469781
1980-01-06T00:27:22.268143279Z,-1.491588,-0.077812,9.822512,-0.054328,0.068044,-0.481499
1980-01-06T00:27:22.288041456Z,-1.474828,-0.005986,10.061932,-0.092944,0.020506,-0.480434
1980-01-06T00:27:22.327777394Z,-1.578976,-0.158017,9.942222,-0.043809,-0.042477,-0.492152
1980-01-06T00:27:22.347647810Z,-1.665167,-0.092177,9.793781,-0.012916,-0.020773,-0.480434
1980-01-06T00:27:22.367534113Z,-1.651999,-0.053870,9.951798,-0.004794,0.047671,-0.460194
1980-01-06T00:27:22.387429685Z,-1.613692,-0.175974,10.052355,0.038882,0.089083,-0.476173
1980-01-06T00:27:22.407300310Z,-1.429338,-0.063446,9.961375,0.033156,0.012517,-0.482564
1980-01-06T00:27:22.427137133Z,-1.620875,-0.077812,9.889549,0.044075,-0.119443,-0.463390
1980-01-06T00:27:22.506625727Z,-1.612495,-0.185551,9.994894,0.023036,0.013316,-0.429301
1980-01-06T00:27:22.526512081Z,-1.513135,-0.161609,9.994894,0.060321,-0.009721,-0.438889
1980-01-06T00:27:22.546337133Z,-1.523909,-0.126893,9.937433,0.091613,-0.069242,-0.437823
1980-01-06T00:27:22.566190102Z,-1.657985,-0.160412,9.956587,0.116913,-0.097472,-0.419714
1980-01-06T00:27:22.586083696Z,-1.738190,-0.148441,9.841665,0.137685,-0.023968,-0.433562
1980-01-06T00:27:22.645663123Z,-1.650802,-0.187945,9.841665,0.081892,0.019308,-0.403735
1980-01-06T00:27:22.665541196Z,-1.691504,-0.013168,9.841665,0.105461,0.007457,-0.385625
1980-01-06T00:27:22.685463487Z,-1.697489,-0.067038,9.627384,0.152599,0.045274,-0.412257
1980-01-06T00:27:22.705315623Z,-1.668759,-0.155623,9.565135,0.127033,0.000399,-0.396278
1980-01-06T00:27:22.725154165Z,-1.668759,-0.107739,9.515455,0.092012,-0.003462,-0.380166
1980-01-06T00:27:22.745017654Z,-1.736993,0.075417,9.534609,0.121706,0.015313,-0.385492
1980-01-06T00:27:22.784782758Z,-1.637634,0.026336,9.644742,0.121041,0.023436,-0.381231
1980-01-06T00:27:22.804784217Z,-1.686715,0.155623,9.582493,0.158192,0.048869,-0.388688
1980-01-06T00:27:22.824503383Z,-1.884237,0.035913,9.228151,0.190682,0.045540,-0.335425
1980-01-06T00:27:22.844366925Z,-1.770512,0.067038,9.501090,0.118644,0.098803,-0.336490
1980-01-06T00:27:22.864277133Z,-1.889025,0.184354,9.572916,0.124503,0.058190,-0.318381
1980-01-06T00:27:22.884324164Z,-2.068590,0.216675,9.424476,0.122372,0.034754,-0.300271
1980-01-06T00:27:22.904161300Z,-2.317587,0.184354,9.419687,0.105861,-0.005326,-0.282162
1980-01-06T00:27:22.943710571Z,-2.234987,0.172383,9.472360,0.021438,-0.006125,-0.188418
1980-01-06T00:27:22.963566352Z,-2.088941,0.307655,9.577704,0.009721,0.021838,-0.151134
1980-01-06T00:27:22.983693279Z,-1.989582,0.248997,9.501090,0.011318,0.013183,-0.118111
1980-01-06T00:27:23.003340258Z,-1.853112,0.153229,9.644742,0.011318,0.008522,-0.095741
1980-01-06T00:27:23.023267654Z,-1.695095,0.076614,9.735722,0.027564,0.005992,-0.093610
1980-01-06T00:27:23.043074946Z,-1.760935,0.111330,9.687838,0.031425,0.025433,-0.098936
1980-01-06T00:27:23.102695206Z,-1.780089,0.114922,9.635165,0.062984,0.066712,-0.106393
1980-01-06T00:27:23.122564008Z,-1.838747,0.052672,9.635165,0.035021,0.017976,-0.075501
1980-01-06T00:27:23.142421873Z,-1.788469,0.083797,9.659107,0.031825,0.020107,-0.072305
1980-01-06T00:27:23.162300050Z,-1.710657,0.061052,9.639954,0.032224,0.015713,-0.069109
1980-01-06T00:27:23.182197862Z,-1.794454,-0.009577,9.424476,0.024501,-0.001065,-0.054195
1980-01-06T00:27:23.202036404Z,-1.665167,-0.010774,9.386168,0.006525,0.019175,-0.044608
1980-01-06T00:27:23.241787862Z,-1.419762,-0.166397,9.367015,-0.023303,0.020773,-0.043543
1980-01-06T00:27:23.261632498Z,-1.236605,-0.235829,9.338284,-0.025699,0.031958,-0.069109
1980-01-06T00:27:23.281789998Z,-1.156399,-0.287304,9.405322,-0.035819,0.033955,-0.095741
1980-01-06T00:27:23.301398487Z,-1.090559,-0.308852,9.405322,-0.024368,0.065514,-0.137286
1980-01-06T00:27:23.321258487Z,-1.060631,-0.404620,9.410110,-0.001731,0.086020,-0.170309
1980-01-06T00:27:23.341138696Z,-0.925359,-0.513556,9.525032,0.001997,0.099203,-0.216115
1980-01-06T00:27:23.400737498Z,-0.744597,-0.531513,9.946412,-0.031825,0.127565,-0.375905
1980-01-06T00:27:23.420600831Z,-0.766145,-0.683545,10.195409,-0.001598,0.113584,-0.433429
1980-01-06T00:27:23.440780258Z,-0.815226,-0.729034,10.506655,0.036485,0.111853,-0.502671
1980-01-06T00:27:23.460332445Z,-1.045069,-0.687136,10.544962,0.059788,0.097338,-0.549543
1980-01-06T00:27:23.480444425Z,-1.109712,-0.622492,10.674249,0.070707,0.196275,-0.612393
1980-01-06T00:27:23.500295935Z,-0.951695,-0.515950,11.133936,0.031292,0.233825,-0.655004
1980-01-06T00:27:23.559754268Z,-1.065420,-0.265756,11.890504,0.198672,-0.003063,-0.741290
1980-01-06T00:27:23.579569945Z,-1.191115,-0.294487,12.173019,0.309725,-0.037817,-0.767922
1980-01-06T00:27:23.599426508Z,-1.479617,-0.317232,12.354979,0.419181,-0.151267,-0.795619
1980-01-06T00:27:23.619314060Z,-1.810017,-0.256180,12.168231,0.487092,-0.144876,-0.829707
1980-01-06T00:27:23.639393956Z,-2.008735,-0.058658,12.196961,0.545548,-0.132758,-0.808402
1980-01-06T00:27:23.659082445Z,-2.179921,0.354342,12.149077,0.616255,-0.193612,-0.751943
1980-01-06T00:27:23.718662133Z,-3.302801,0.908600,11.430817,1.022120,-0.295611,-0.455800
1980-01-06T00:27:23.738533591Z,-3.570952,1.274912,11.598411,1.045956,-0.033955,-0.365252
1980-01-06T00:27:23.758415518Z,-4.011485,1.686715,11.416451,1.086835,0.143944,-0.195875
1980-01-06T00:27:23.778484581Z,-3.688268,1.613692,11.258434,1.048086,0.196275,-0.149004
1980-01-06T00:27:23.798359841Z,-3.590106,1.964442,11.277588,1.057674,-0.133424,-0.134090
1980-01-06T00:27:23.818034529Z,-3.956418,2.102109,11.071687,1.023319,-0.492951,-0.085088
1980-01-06T00:27:23.857736195Z,-4.584896,2.760514,10.677241,1.004011,-0.561394,0.131560
1980-01-06T00:27:23.897506299Z,-4.395754,2.734178,9.848848,1.130111,-0.267781,0.339286
1980-01-06T00:27:23.917360466Z,-4.161122,2.977190,9.178472,1.177382,-0.367782,0.460726
1980-01-06T00:27:23.937221977Z,-3.742137,2.926912,8.891168,1.110005,-0.498943,0.543817
1980-01-06T00:27:23.957113227Z,-3.503914,3.357868,8.656535,1.253149,-0.583631,0.570449
1980-01-06T00:27:24.016699945Z,-2.777274,3.387795,7.679701,0.909336,-0.570049,0.825047
1980-01-06T00:27:24.036580727Z,-2.649184,3.390190,7.358878,0.949682,-0.502938,0.896419
1980-01-06T00:27:24.056663487Z,-2.134431,3.454833,7.220015,0.931573,-0.432098,0.952878
1980-01-06T00:27:24.076510674Z,-1.832761,3.459621,6.674137,0.910001,-0.380033,1.016794
1980-01-06T00:27:24.096214164Z,-1.097741,3.801992,6.755539,1.044491,-0.414521,1.048752
1980-01-06T00:27:24.116037549Z,-1.503559,3.354277,6.473023,0.662328,-0.346743,1.143560
1980-01-06T00:27:24.175668747Z,-0.791284,3.491943,6.166566,0.468450,0.058856,1.355548
1980-01-06T00:27:24.195527237Z,-0.422577,3.606865,6.329371,0.492818,0.196008,1.355548
1980-01-06T00:27:24.215745049Z,-0.084994,3.517082,6.228815,0.481499,0.171507,1.382179
1980-01-06T00:27:24.235278122Z,0.275333,3.222595,5.860108,0.450473,0.194277,1.372592
1980-01-06T00:27:24.255163435Z,0.454898,3.046622,5.726033,0.364320,0.268047,1.365135
1980-01-06T00:27:24.275063539Z,0.609324,3.123236,5.625476,0.249005,0.325172,1.390702
1980-01-06T00:27:24.314778226Z,1.144428,3.298013,5.740398,0.103597,0.561527,1.443965
1980-01-06T00:27:24.334616768Z,1.389834,3.154361,5.448305,0.098936,0.686829,1.430116
1980-01-06T00:27:24.354506143Z,1.659182,2.719813,5.587169,0.010653,0.792689,1.387506
1980-01-06T00:27:24.374570310Z,2.178724,2.852691,6.027702,-0.149004,0.766324,1.366200
1980-01-06T00:27:24.394259320Z,2.310405,2.913743,6.166566,-0.177366,0.700411,1.277784
1980-01-06T00:27:24.414131924Z,2.194286,3.131616,5.979818,-0.248739,0.660463,1.139299
1980-01-06T00:27:24.434011872Z,2.219425,2.783259,5.812224,-0.343281,0.485094,1.061535
1980-01-06T00:27:24.473707081Z,2.313996,2.698265,6.434716,-0.625975,0.771118,0.926247
1980-01-06T00:27:24.493610518Z,2.061408,2.802413,6.846519,-0.655537,0.846219,0.857005
1980-01-06T00:27:24.513459685Z,2.351106,2.394202,7.732374,-0.798814,0.721583,0.833569
1980-01-06T00:27:24.533333591Z,2.591723,2.136825,8.383596,-0.949949,0.729572,0.813329
1980-01-06T00:27:24.553187028Z,2.565387,2.294842,8.713996,-0.866059,0.963664,0.668453
1980-01-06T00:27:24.573061560Z,2.642002,2.433706,8.809765,-0.702275,1.073653,0.484162
1980-01-06T00:27:24.632674997Z,1.806425,2.069787,9.140164,-0.775645,0.719452,0.109190
1980-01-06T00:27:24.652537549Z,1.406593,1.880645,9.168895,-0.659531,0.721450,0.004794
1980-01-06T00:27:24.672449060Z,1.306037,1.277307,9.317335,-0.670317,0.755272,-0.052731
1980-01-06T00:27:24.692296247Z,1.250970,1.340753,9.753080,-0.688027,0.830373,-0.104928
1980-01-06T00:27:24.712147549Z,1.101333,1.432930,9.887156,-0.618652,0.863396,-0.222107
1980-01-06T00:27:24.732007549Z,0.848745,1.455675,9.887156,-0.562326,0.774979,-0.326503
1980-01-06T00:27:24.771774164Z,0.466869,1.189918,10.388741,-0.658599,0.576973,-0.540089
1980-01-06T00:27:24.791619945Z,0.003591,1.458069,10.570700,-0.622247,0.446612,-0.597613
1980-01-06T00:27:24.811516299Z,-0.398635,1.144428,10.685621,-0.510528,0.386424,-0.638093
1980-01-06T00:27:24.831437601Z,-0.646434,0.823605,10.767024,-0.470713,0.491353,-0.698813
1980-01-06T00:27:24.851458695Z,-0.672771,1.133654,11.044752,-0.506133,0.473776,-0.705204
1980-01-06T00:27:24.871125101Z,-1.039083,1.074997,9.948207,-0.603205,0.483097,-0.686030
1980-01-06T00:27:24.891214580Z,-0.927753,1.252167,11.260230,-0.211188,0.387889,-0.860733
1980-01-06T00:27:24.930761768Z,-1.338359,1.259350,9.919477,-0.208792,0.193478,-0.909735
1980-01-06T00:27:24.950609060Z,-1.337162,1.306037,10.120590,-0.267514,0.058456,-0.945954
1980-01-06T00:27:24.970511716Z,-1.540669,1.187524,10.369587,-0.312122,-0.047271,-0.926779
1980-01-06T00:27:24.990330830Z,-1.638831,0.857124,10.709563,-0.337289,0.081626,-0.916127
1980-01-06T00:27:25.010214945Z,-1.473631,0.981623,11.351210,-0.190416,0.135022,-0.927845
1980-01-06T00:27:25.030084945Z,-1.485602,0.774524,11.269807,-0.010386,0.053529,-0.950215
1980-01-06T00:27:25.089716247Z,-1.508347,0.629675,10.743082,-0.060720,0.019841,-0.936367
1980-01-06T00:27:25.109760570Z,-1.600524,0.472855,10.676044,-0.032491,0.077897,-0.953411
1980-01-06T00:27:25.129428018Z,-1.600524,0.639252,10.666468,-0.034488,0.114116,-0.945954
1980-01-06T00:27:25.149307497Z,-1.643619,0.852336,10.733505,-0.011185,0.070574,-0.919322
1980-01-06T00:27:25.169382393Z,-1.644817,0.741005,10.704775,0.005593,0.037551,-0.917192
1980-01-06T00:27:25.189047080Z,-1.777695,0.724246,10.695198,0.033955,-0.018642,-0.912931
1980-01-06T00:27:25.228806039Z,-2.158373,0.933739,10.450990,0.111720,-0.138351,-0.907605
1980-01-06T00:27:25.248661455Z,-2.371457,0.901417,10.288184,0.129163,-0.193612,-0.879908
1980-01-06T00:27:25.268508955Z,-2.455254,0.978031,10.163686,0.115714,-0.221575,-0.826644
1980-01-06T00:27:25.288607393Z,-2.472013,1.116895,9.967360,0.144210,-0.207726,-0.810666
1980-01-06T00:27:25.308249684Z,-2.662352,1.264138,9.656115,0.162453,-0.203598,-0.800013
1980-01-06T00:27:25.328166559Z,-2.971204,1.520318,9.550470,0.122905,-0.236888,-0.746217
1980-01-06T00:27:25.348087132Z,-3.124433,1.510741,9.689334,0.090015,-0.229032,-0.676975
1980-01-06T00:27:25.387752809Z,-3.385401,1.361104,9.703699,0.214784,-0.090814,-0.550209
1980-01-06T00:27:25.407621716Z,-3.315969,1.258153,9.421184,0.247407,-0.024767,-0.449009
1980-01-06T00:27:25.427466663Z,-3.114856,1.289278,9.339781,0.254731,0.088017,-0.352070
1980-01-06T00:27:25.447337497Z,-2.780865,1.374272,9.244013,0.232760,0.185888,-0.299872
1980-01-06T00:27:25.467229059Z,-2.419341,1.377863,9.244013,0.179364,0.129296,-0.231695
1980-01-06T00:27:25.487323382Z,-2.221819,1.389834,9.296685,0.132093,0.069642,-0.193345
1980-01-06T00:27:25.507045934Z,-2.161964,1.472434,9.363723,0.119975,0.043010,-0.161387
1980-01-06T00:27:25.546710413Z,-2.057816,1.063026,9.368511,0.035287,0.010653,-0.130495
1980-01-06T00:27:25.566782861Z,-1.922544,1.077391,9.526528,-0.021572,-0.035420,-0.104928
1980-01-06T00:27:25.586494216Z,-1.830367,1.039083,9.698911,-0.009321,-0.036752,-0.113451
1980-01-06T00:27:25.606397132Z,-1.836353,1.021127,9.660604,0.011318,-0.048336,-0.124103
1980-01-06T00:27:25.626190726Z,-1.836353,0.970849,9.555259,0.014248,-0.060720,-0.123038
1980-01-06T00:27:25.646103018Z,-1.811214,1.023521,9.607931,0.020506,-0.030360,-0.130495
1980-01-06T00:27:25.705672393Z,-1.867477,1.066617,9.493010,0.016378,0.001997,-0.119842
1980-01-06T00:27:25.725542705Z,-1.799243,1.077391,9.473856,0.016112,-0.015446,-0.118777
1980-01-06T00:27:25.745399580Z,-1.897405,1.108515,9.432856,0.014115,-0.042611,-0.124103
1980-01-06T00:27:25.765294997Z,-1.953669,1.017536,9.365818,-0.006525,-0.037551,-0.102798
1980-01-06T00:27:25.785165622Z,-1.898602,1.011550,9.423279,-0.020107,-0.007191,-0.101733
1980-01-06T00:27:25.805018695Z,-1.871069,1.037886,9.519047,-0.017976,-0.008788,-0.094276
1980-01-06T00:27:25.844742601Z,-1.726219,0.858321,9.571719,-0.033556,-0.035154,-0.103863
1980-01-06T00:27:25.864617028Z,-1.769315,0.979228,9.643545,-0.016911,-0.032091,-0.111320
1980-01-06T00:27:25.884504320Z,-1.790863,0.980426,9.590873,-0.002264,-0.042744,-0.108124
1980-01-06T00:27:25.904362705Z,-1.680730,0.992397,9.523835,-0.019974,-0.030759,-0.110255
1980-01-06T00:27:25.924303017Z,-1.642422,0.944513,9.557354,-0.038749,-0.060321,-0.098537
1980-01-06T00:27:25.944116247Z,-1.617283,0.968455,9.691429,-0.043942,-0.058456,-0.097472
1980-01-06T00:27:26.003728799Z,-1.550246,1.019930,10.170270,0.066046,-0.035154,-0.161387
1980-01-06T00:27:26.023587653Z,-1.575385,1.033098,10.294768,0.065647,-0.100934,-0.163518
1980-01-06T00:27:26.043456715Z,-1.507150,1.131260,10.543765,0.060321,-0.095341,-0.169910
1980-01-06T00:27:26.063345049Z,-1.333570,1.101333,10.850223,0.043809,-0.033689,-0.212520
1980-01-06T00:27:26.083221924Z,-1.215057,1.086968,11.142316,0.070574,0.141414,-0.360592
1980-01-06T00:27:26.103204580Z,-1.185130,1.322796,11.831845,0.100002,0.180962,-0.455400
1980-01-06T00:27:26.123179215Z,-1.240196,1.403002,13.038523,0.150335,0.279232,-0.517185
1980-01-06T00:27:26.142805778Z,-1.325191,2.001553,14.226048,0.309859,0.398675,-0.599211
1980-01-06T00:27:26.162677288Z,-2.117671,1.978808,14.259566,0.545548,0.165249,-0.548078
1980-01-06T00:27:26.182552288Z,-2.936488,2.194286,14.178164,0.890161,-0.044608,-0.541686
1980-01-06T00:27:26.202396611Z,-3.875015,2.264915,13.459903,1.086169,-0.292947,-0.464988
1980-01-06T00:27:26.222282184Z,-4.844667,2.741361,13.234848,1.148354,-0.516786,-0.270044
1980-01-06T00:27:26.242148174Z,-5.556942,3.204639,12.784738,1.287770,-0.589490,-0.035686
1980-01-06T00:27:26.262042184Z,-6.151901,3.100491,12.313978,1.337971,-0.549410,0.231695
1980-01-06T00:27:26.321640309Z,-6.635530,2.881422,8.440160,1.649427,-0.613059,0.765392
1980-01-06T00:27:26.341507288Z,-6.349423,2.673126,7.372345,1.645033,-0.676575,0.981640
1980-01-06T00:27:26.361400517Z,-5.869385,2.578555,6.112996,1.557682,-0.575109,1.201085
1980-01-06T00:27:26.381207028Z,-4.994305,2.494758,4.757877,1.472727,-0.488423,1.360874
1980-01-06T00:27:26.401134059Z,-3.962404,1.926135,3.168127,1.104545,-0.401338,1.586710
1980-01-06T00:27:26.460740569Z,0.562637,1.115698,0.735918,0.133557,0.236755,1.964346
1980-01-06T00:27:26.480824319Z,2.296039,1.233014,1.162086,-0.206794,0.622247,1.949432
1980-01-06T00:27:26.500472861Z,3.403358,1.085770,1.693598,-0.351803,0.882704,1.698030
1980-01-06T00:27:26.520325673Z,3.524265,0.512359,2.081459,-0.581101,0.910134,1.468998
1980-01-06T00:27:26.540200205Z,3.636792,0.019154,3.522768,-0.870853,0.881905,1.165398
1980-01-06T00:27:26.560106976Z,3.301604,-0.288501,4.806061,-1.030776,0.919056,0.922518
1980-01-06T00:27:26.619691403Z,3.852271,0.521936,8.612842,-1.019191,1.103347,0.111853
1980-01-06T00:27:26.639521038Z,3.702633,0.484826,9.762058,-1.089232,0.914529,-0.148072
1980-01-06T00:27:26.659425309Z,3.119645,0.708684,11.021408,-1.022120,0.849681,-0.431432
1980-01-06T00:27:26.679515205Z,2.286463,0.450110,11.830648,-0.939429,0.715591,-0.642354
1980-01-06T00:27:26.699155882Z,1.545457,0.492008,12.601582,-0.736896,0.638492,-0.888430
1980-01-06T00:27:26.719016611Z,0.915782,0.582988,13.463494,-0.614657,0.468050,-1.010935
1980-01-06T00:27:26.778614996Z,-0.785298,1.951274,14.397233,-0.389620,0.165515,-1.253815
1980-01-06T00:27:26.798491715Z,-1.337162,2.081758,14.363714,-0.253133,-0.052464,-1.275120
1980-01-06T00:27:26.818369736Z,-1.895011,2.396596,14.684537,-0.166581,-0.270710,-1.288969
1980-01-06T00:27:26.838240517Z,-2.598906,2.795230,14.828189,-0.033023,-0.462591,-1.276186
1980-01-06T00:27:26.858140309Z,-3.294421,2.956839,14.507366,0.140615,-0.553404,-1.251685
1980-01-06T00:27:26.878159371Z,-3.912126,3.094506,14.301465,0.280564,-0.628772,-1.196291
1980-01-06T00:27:26.917702236Z,-5.069722,3.451242,12.046126,0.565921,-0.845819,-0.980042
1980-01-06T00:27:26.937624059Z,-5.606023,3.519476,10.901698,0.557399,-0.835832,-0.794687
1980-01-06T00:27:26.957497600Z,-5.852626,3.620033,9.920075,0.585495,-0.813728,-0.557133
1980-01-06T00:27:26.977359527Z,-5.819107,3.630807,9.019855,0.637294,-0.749147,-0.344080
1980-01-06T00:27:26.997210361Z,-5.510255,3.543418,7.861062,0.668586,-0.609064,-0.136354
1980-01-06T00:27:27.017048642Z,-5.027823,3.391387,6.975207,0.610795,-0.534230,0.106526
1980-01-06T00:27:27.076725569Z,-2.239776,2.760514,6.132448,0.400672,-0.221974,0.563524
1980-01-06T00:27:27.096559371Z,-1.025915,2.369063,6.333561,0.248606,-0.123171,0.635962
1980-01-06T00:27:27.116448382Z,-0.034716,2.477999,6.865074,0.134756,-0.131027,0.609331
1980-01-06T00:27:27.136312392Z,0.322020,2.142811,7.123648,0.145009,-0.171108,0.486825
1980-01-06T00:27:27.156200517Z,0.474052,1.867477,7.406164,0.057258,-0.167113,0.419181
1980-01-06T00:27:27.176032652Z,0.645237,2.009932,7.875427,-0.060587,-0.089083,0.400006
1980-01-06T00:27:27.235677392Z,1.115698,2.099715,8.473978,-0.072837,0.242347,0.211455
1980-01-06T00:27:27.255537548Z,1.244985,2.402581,8.641572,-0.164850,0.193612,0.133691
1980-01-06T00:27:27.275470413Z,1.113304,2.676718,8.991125,-0.167779,0.062318,0.053796
1980-01-06T00:27:27.295279371Z,0.776918,2.664747,9.029432,-0.124503,0.031692,-0.041013
1980-01-06T00:27:27.315130882Z,0.323217,2.718616,8.962395,-0.084156,0.028762,-0.088950
1980-01-06T00:27:27.335017079Z,-0.004788,2.840720,8.938453,-0.059921,0.043143,-0.116646
1980-01-06T00:27:27.374731715Z,-0.214281,2.797625,9.216180,-0.158991,0.001198,-0.131560
1980-01-06T00:27:27.394621350Z,-0.493206,2.855086,9.302371,-0.149270,-0.051133,-0.137952
1980-01-06T00:27:27.414662496Z,-0.894234,2.752135,9.288006,-0.068976,-0.083357,-0.123038
1980-01-06T00:27:27.434361246Z,-1.025915,2.594118,9.144354,-0.034754,-0.041279,-0.114516
1980-01-06T00:27:27.454206194Z,-0.958878,2.616863,9.000702,-0.057657,0.012916,-0.080427
1980-01-06T00:27:27.474105413Z,-0.766145,2.688689,8.895357,-0.101067,0.057524,-0.059122
1980-01-06T00:27:27.494007444Z,-0.756568,2.591723,8.847473,-0.107725,0.048603,-0.051665
1980-01-06T00:27:27.533702131Z,-0.511162,2.378639,8.564958,0.029162,0.007057,-0.051665
1980-01-06T00:27:27.553569215Z,-0.335188,2.260126,8.258499,-0.022903,-0.002131,-0.096406
1980-01-06T00:27:27.573429944Z,-0.331597,2.280477,7.846697,-0.109722,-0.095341,-0.094276
1980-01-06T00:27:27.593308694Z,-0.308852,2.431312,7.602488,-0.198538,-0.138617,-0.116646
1980-01-06T00:27:27.613162600Z,-0.336385,2.548628,7.683891,-0.271909,-0.119576,-0.110255
1980-01-06T00:27:27.633115881Z,-0.320823,2.327164,7.573758,-0.337156,-0.049801,-0.108124
1980-01-06T00:27:27.692647861Z,-0.466869,1.844732,8.038233,-0.341550,0.036352,-0.048469
1980-01-06T00:27:27.712562808Z,-0.205901,1.729811,8.373421,-0.389354,0.046339,-0.039947
1980-01-06T00:27:27.732395152Z,-0.162806,1.753753,8.253711,-0.262587,-0.016911,-0.065514
1980-01-06T00:27:27.752306038Z,-0.257377,1.701080,8.363844,-0.178032,-0.046073,-0.093211
1980-01-06T00:27:27.772131142Z,-0.253785,1.414973,8.004714,-0.369114,0.084688,-0.143278
1980-01-06T00:27:27.792026871Z,-0.300472,1.987187,8.617630,-0.505867,0.248739,-0.188019
1980-01-06T00:27:27.851648433Z,-0.001197,1.622072,9.264064,-0.776710,0.065780,-0.172040
1980-01-06T00:27:27.871511923Z,-0.661997,1.522712,9.393352,-0.721450,-0.011718,-0.135821
1980-01-06T00:27:27.891355204Z,-0.829591,1.462857,9.747693,-0.688427,0.074568,-0.136886
1980-01-06T00:27:27.911218590Z,-0.646434,1.399411,9.891345,-0.629171,0.081226,-0.191215
1980-01-06T00:27:27.931095308Z,-0.342371,1.495179,10.619183,-0.731969,-0.164716,-0.180562
1980-01-06T00:27:27.951008642Z,-0.719458,1.356315,10.403705,-0.798814,-0.409594,-0.020773
1980-01-06T00:27:27.990686142Z,-0.814029,0.804452,10.753258,-0.608399,-0.018509,-0.111320
1980-01-06T00:27:28.010585725Z,-0.899023,0.690727,11.294347,-0.520115,-0.101600,-0.011185
1980-01-06T00:27:28.030431715Z,-0.782904,0.780510,12.563274,-0.826644,-0.082025,0.016512
1980-01-06T00:27:28.050336558Z,-0.816423,0.271742,11.758822,-0.955275,0.028496,0.029295
1980-01-06T00:27:28.070202131Z,-0.640449,0.640449,11.433211,-0.803608,-0.107059,-0.004794
1980-01-06T00:27:28.090032392Z,-0.952892,0.290895,11.236886,-0.657534,-0.140215,0.058057
1980-01-06T00:27:28.149663850Z,-0.457293,-0.538695,10.987889,-0.385625,-0.106793,0.076166
1980-01-06T00:27:28.169525517Z,-0.719458,-1.100136,10.901698,-0.215183,-0.136087,-0.080427
1980-01-06T00:27:28.189575152Z,-0.588974,-1.049857,11.093234,-0.550608,-0.229564,-0.090015
1980-01-06T00:27:28.209263902Z,-0.925359,-0.549469,11.456854,-0.793754,-0.426904,0.048469
1980-01-06T00:27:28.229119996Z,1.325191,-0.574608,13.439253,1.003345,-2.022270,0.319046
1980-01-06T00:27:28.249011454Z,-0.588974,-1.916559,6.323685,-0.247141,-0.192680,-0.167779
1980-01-06T00:27:28.288742079Z,0.219069,0.074220,9.927258,0.075900,0.020906,-0.011585
1980-01-06T00:27:28.308610777Z,-0.082600,-0.234632,9.601646,0.008123,-0.007457,-0.006258
1980-01-06T00:27:28.328456454Z,-0.001197,-0.219069,9.802759,-0.004927,-0.019308,-0.013715
1980-01-06T00:27:28.348395048Z,0.107739,-0.104148,9.874586,0.014115,-0.009587,-0.012650
1980-01-06T00:27:28.368203381Z,-0.120907,-0.302867,9.740510,0.020773,-0.010919,-0.011585
1980-01-06T00:27:28.388291975Z,-0.247800,-0.192733,9.898528,0.019574,-0.016911,-0.011585
1980-01-06T00:27:28.408182652Z,0.089783,-0.233435,9.716568,0.017311,-0.017444,-0.015846
1980-01-06T00:27:28.447696089Z,0.159214,0.064643,9.922470,0.037684,0.005593,-0.021172
1980-01-06T00:27:28.467752548Z,-0.567426,-0.481235,9.505878,-0.041945,-0.021172,-0.010519
1980-01-06T00:27:28.487726246Z,0.219069,-0.126893,9.812336,-0.023569,-0.017444,-0.013715
1980-01-06T00:27:28.507534891Z,0.023942,-0.105345,9.764452,0.005593,-0.000399,-0.015846
1980-01-06T00:27:28.527203850Z,-0.135272,-0.201113,9.793182,0.006791,-0.009854,-0.013715
1980-01-06T00:27:28.547091037Z,0.029928,-0.263362,9.716568,0.000133,-0.010519,-0.014781
1980-01-06T00:27:28.586856558Z,-0.049081,-0.205901,9.750087,-0.005193,-0.009055,-0.014781
1980-01-06T00:27:28.606662860Z,-0.011971,-0.215478,9.750087,-0.002264,-0.008389,-0.015846
1980-01-06T00:27:28.626539423Z,-0.038307,-0.216675,9.745298,-0.001997,-0.007590,-0.013715
1980-01-06T00:27:28.646413798Z,-0.020351,-0.229843,9.726145,-0.000399,-0.007590,-0.014781
1980-01-06T00:27:28.666309058Z,-0.021548,-0.222661,9.754875,-0.002796,-0.007989,-0.014781
1980-01-06T00:27:28.686141975Z,-0.019154,-0.213084,9.750087,-0.001198,-0.008522,-0.015846
1980-01-06T00:27:28.706121923Z,-0.015562,-0.209493,9.735722,-0.000533,-0.008256,-0.014781
1980-01-06T00:27:28.745773225Z,-0.026336,-0.208296,9.735722,-0.002530,-0.007856,-0.014781
1980-01-06T00:27:28.765605933Z,-0.020351,-0.227449,9.745298,-0.002397,-0.008256,-0.015846
1980-01-06T00:27:28.785484527Z,-0.031125,-0.223858,9.730933,-0.002929,-0.008522,-0.015846
1980-01-06T00:27:28.805349735Z,-0.023942,-0.233435,9.726145,-0.002796,-0.008788,-0.014781
1980-01-06T00:27:28.825237287Z,-0.020351,-0.215478,9.754875,-0.002264,-0.007989,-0.014781
1980-01-06T00:27:28.845135152Z,-0.034716,-0.219069,9.759664,-0.002264,-0.008256,-0.015846
1980-01-06T00:27:28.904717235Z,0.000000,-0.210690,9.886257,-0.003063,-0.008922,-0.013848
1980-01-06T00:27:28.924626141Z,-0.014365,-0.207098,9.756970,-0.001731,-0.006525,-0.012783
1980-01-06T00:27:28.944456454Z,-0.047884,-0.204704,9.747394,0.000133,-0.009188,-0.014914
1980-01-06T00:27:28.964522495Z,-0.031125,-0.215478,9.713875,0.000932,-0.007723,-0.014914
1980-01-06T00:27:28.984195152Z,-0.033519,-0.174777,9.986814,-0.001598,-0.009454,-0.014914
