timestamp,accel_x,accel_y,accel_z,gyro_x,gyro_y,gyro_z
1980-01-06T00:04:04.822285635Z,-0.029928,-0.192733,9.724051,0.000000,0.000000,-0.000133
1980-01-06T00:04:04.842136625Z,-0.044293,-0.173580,9.819818,0.095741,0.140482,-0.997220
1980-01-06T00:04:04.861997875Z,-0.008380,-0.174777,9.807548,-0.007457,-0.010386,-0.015979
1980-01-06T00:04:04.881869073Z,-0.015562,-0.187945,9.754875,-0.006658,-0.007457,-0.013848
1980-01-06T00:04:04.901684489Z,-0.005986,-0.196325,9.702203,-0.002397,-0.008389,-0.013848
1980-01-06T00:04:04.921656833Z,-0.019154,-0.152032,9.745298,0.000666,-0.008256,-0.013848
1980-01-06T00:04:04.941415583Z,-0.028730,-0.125696,9.735722,-0.001065,-0.007191,-0.013848
1980-01-06T00:04:04.961260271Z,-0.022745,-0.168791,9.726145,-0.003595,-0.007723,-0.012783
1980-01-06T00:04:04.981149489Z,-0.011971,-0.164003,9.750087,-0.002796,-0.008522,-0.013848
1980-01-06T00:04:05.000882146Z,-0.002394,-0.181959,9.745298,-0.003196,-0.007191,-0.013848
1980-01-06T00:04:05.020749385Z,-0.003591,-0.198719,9.730933,-0.003196,-0.007457,-0.013848
1980-01-06T00:04:05.040635687Z,-0.032322,-0.177171,9.750087,-0.002131,-0.008389,-0.013848
1980-01-06T00:04:05.060479594Z,-0.045490,-0.173580,9.750087,-0.002796,-0.008522,-0.013848
1980-01-06T00:04:05.080359646Z,-0.037110,-0.168791,9.745298,-0.003728,-0.007723,-0.013848
1980-01-06T00:04:05.100257458Z,-0.032322,-0.180762,9.735722,-0.001598,-0.007057,-0.013848
1980-01-06T00:04:05.120155114Z,-0.011971,-0.178368,9.721356,-0.002131,-0.007723,-0.013848
1980-01-06T00:04:05.140037354Z,-0.008380,-0.190339,9.730933,-0.003196,-0.006525,-0.012783
1980-01-06T00:04:05.159839073Z,-0.040701,-0.185551,9.716568,-0.002929,-0.009454,-0.012783
1980-01-06T00:04:05.179748083Z,-0.032322,-0.178368,9.735722,-0.001198,-0.008389,-0.013848
1980-01-06T00:04:05.199641781Z,0.003591,-0.175974,9.731233,-0.003196,-0.006658,-0.013316
1980-01-06T00:04:05.219516208Z,-0.015562,-0.169988,9.720459,-0.002796,-0.008256,-0.014381
1980-01-06T00:04:05.239363135Z,-0.016759,-0.190339,9.725247,-0.002397,-0.006658,-0.013316
1980-01-06T00:04:05.259229593Z,-0.029928,-0.167594,9.739613,-0.002397,-0.007590,-0.013316
1980-01-06T00:04:05.279083135Z,-0.015562,-0.166397,9.744401,-0.002929,-0.008123,-0.013316
1980-01-06T00:04:05.318830218Z,-0.025139,-0.164003,9.726145,-0.001864,-0.009587,-0.013848
1980-01-06T00:04:05.338759593Z,0.010774,-0.185551,9.730933,-0.001198,-0.007457,-0.014914
1980-01-06T00:04:05.358582666Z,-0.027533,-0.171185,9.735722,-0.002131,-0.007590,-0.012783
1980-01-06T00:04:05.378481260Z,-0.031125,-0.171185,9.730933,-0.003862,-0.006791,-0.012783
1980-01-06T00:04:05.398283656Z,-0.035913,-0.173580,9.721356,-0.002131,-0.007989,-0.013848
1980-01-06T00:04:05.418207875Z,-0.022745,-0.186748,9.701605,-0.002929,-0.007324,-0.013848
1980-01-06T00:04:05.438012354Z,-0.022745,-0.198719,9.725547,-0.002264,-0.007590,-0.013848
1980-01-06T00:04:05.477799958Z,-0.019154,-0.156820,9.730335,-0.002264,-0.007590,-0.013848
1980-01-06T00:04:05.497614177Z,0.008380,-0.156820,9.730933,-0.002397,-0.006525,-0.013848
1980-01-06T00:04:05.517523552Z,-0.016759,-0.172383,9.716568,-0.002264,-0.006924,-0.013848
1980-01-06T00:04:05.537388187Z,-0.031125,-0.184354,9.721356,-0.003329,-0.006924,-0.013848
1980-01-06T00:04:05.557242614Z,-0.038307,-0.190339,9.730933,-0.003063,-0.009321,-0.013848
1980-01-06T00:04:05.577150531Z,-0.033519,-0.171185,9.721356,-0.002929,-0.007590,-0.012783
1980-01-06T00:04:05.597010739Z,-0.053870,-0.142455,9.775825,-0.003728,-0.008522,-0.015446
1980-01-06T00:04:05.616856781Z,0.034716,-0.173580,9.716568,-0.002264,-0.009188,-0.013848
1980-01-06T00:04:05.636730843Z,0.029928,-0.211887,9.702203,-0.002929,-0.007856,-0.012783
1980-01-06T00:04:05.656623916Z,-0.001197,-0.204704,9.721356,-0.002663,-0.008256,-0.013848
1980-01-06T00:04:05.676446104Z,-0.044293,-0.179565,9.730933,-0.002264,-0.007057,-0.012783
1980-01-06T00:04:05.696351416Z,-0.021548,-0.159214,9.711780,-0.002397,-0.008522,-0.013848
1980-01-06T00:04:05.716197041Z,-0.045490,-0.175974,9.726145,-0.004128,-0.007723,-0.012783
1980-01-06T00:04:05.736098031Z,-0.014365,-0.174777,9.731233,-0.004128,-0.008389,-0.014381
1980-01-06T00:04:05.775813968Z,-0.005986,-0.166397,9.725247,-0.002530,-0.007057,-0.014381
1980-01-06T00:04:05.795661260Z,-0.015562,-0.172383,9.730933,-0.004527,-0.007057,-0.012783
1980-01-06T00:04:05.815624124Z,-0.009577,-0.162806,9.716568,-0.001198,-0.006791,-0.012783
1980-01-06T00:04:05.835406104Z,-0.001197,-0.180762,9.716568,-0.004927,-0.006791,-0.012783
1980-01-06T00:04:05.855295947Z,-0.017957,-0.195127,9.721356,-0.004128,-0.008922,-0.012783
1980-01-06T00:04:05.875144645Z,-0.019154,-0.178368,9.730933,-0.001198,-0.008256,-0.013848
1980-01-06T00:04:05.895014281Z,-0.035913,-0.172383,9.721356,-0.002796,-0.007057,-0.012783
1980-01-06T00:04:05.934768812Z,-0.025139,-0.175974,9.726145,-0.002796,-0.008123,-0.013848
1980-01-06T00:04:05.954611208Z,0.014365,-0.164003,9.683049,-0.016778,0.000000,-0.013848
1980-01-06T00:04:05.974532041Z,-0.025139,-0.120907,9.788394,-0.008389,-0.005992,-0.011718
1980-01-06T00:04:05.994340843Z,0.062249,-0.086191,9.706991,-0.002397,-0.005193,-0.014914
1980-01-06T00:04:06.014225010Z,-0.110133,-0.106542,9.778817,-0.017311,-0.005060,-0.012783
1980-01-06T00:04:06.034109645Z,0.027533,-0.186748,9.692626,0.007057,-0.008389,-0.017044
1980-01-06T00:04:06.053950166Z,-0.008380,-0.190339,9.692626,0.004661,-0.012117,-0.012783
1980-01-06T00:04:06.073884489Z,-0.019154,-0.136469,9.745298,-0.004927,-0.006658,-0.014914
1980-01-06T00:04:06.093695062Z,-0.123301,-0.136469,9.821913,-0.001997,-0.012384,-0.012783
1980-01-06T00:04:06.113626468Z,0.046687,-0.185551,9.649530,-0.005326,-0.009055,-0.013848
1980-01-06T00:04:06.133447979Z,-0.065841,-0.234632,9.726145,0.006392,-0.007057,-0.014914
1980-01-06T00:04:06.153339801Z,0.019154,-0.198719,9.697414,0.005593,-0.008655,-0.014914
1980-01-06T00:04:06.173184697Z,-0.046687,-0.175974,9.726145,0.011452,-0.005726,-0.015979
1980-01-06T00:04:06.193049124Z,-0.031125,-0.209493,9.759963,0.021971,-0.009854,-0.022903
1980-01-06T00:04:06.232784124Z,-0.051475,-0.256180,9.721656,-0.007457,-0.005726,-0.017577
1980-01-06T00:04:06.252703656Z,-0.011971,-0.118513,9.731233,-0.005859,-0.004394,-0.014381
1980-01-06T00:04:06.272530531Z,-0.013168,-0.107739,9.736021,-0.007324,-0.005193,-0.013316
1980-01-06T00:04:06.292370114Z,-0.023942,-0.196325,9.706991,-0.010519,-0.009454,-0.013848
1980-01-06T00:04:06.312250114Z,-0.052672,-0.135272,9.793182,-0.007457,-0.006791,-0.012783
1980-01-06T00:04:06.332141624Z,-0.003591,-0.174777,9.721356,0.002796,-0.008389,-0.014914
1980-01-06T00:04:06.371845426Z,0.004788,-0.130484,9.740510,-0.015579,-0.008389,-0.012783
1980-01-06T00:04:06.391784645Z,-0.045490,-0.198719,9.745298,-0.002663,-0.011318,-0.013848
1980-01-06T00:04:06.411639749Z,-0.037110,-0.202310,9.711780,-0.001198,-0.010253,-0.015979
1980-01-06T00:04:06.431526520Z,0.010774,-0.138864,9.721356,-0.014115,-0.010386,-0.012783
1980-01-06T00:04:06.451371989Z,0.002394,-0.134075,9.706393,-0.024501,-0.002663,-0.012783
1980-01-06T00:04:06.471213655Z,-0.136469,-0.166397,9.744700,-0.038616,-0.000133,-0.014914
1980-01-06T00:04:06.491069333Z,-0.046687,-0.274136,9.721356,-0.001997,-0.009721,-0.014914
1980-01-06T00:04:06.550693343Z,0.168791,-0.088585,9.774029,-0.031026,-0.003063,-0.015979
1980-01-06T00:04:06.570560843Z,-0.028730,-0.189142,9.745298,-0.031825,-0.001598,-0.015979
1980-01-06T00:04:06.590430426Z,-0.062249,-0.174777,9.730933,-0.018109,-0.008256,-0.022371
1980-01-06T00:04:06.610323447Z,-0.377087,-0.099359,9.663896,-0.003063,-0.010653,-0.028762
1980-01-06T00:04:06.630217249Z,-0.301669,-0.056264,9.697414,0.019441,-0.011318,0.006392
1980-01-06T00:04:06.650078655Z,-0.197522,-0.028730,9.764452,0.012916,0.005193,-0.027697
1980-01-06T00:04:06.689808395Z,-0.174777,-0.105345,9.893740,0.016245,-0.005060,-0.038349
1980-01-06T00:04:06.709658030Z,-0.457293,-0.454898,9.611223,0.062984,-0.007590,-0.084156
1980-01-06T00:04:06.729565166Z,-0.500388,-0.179565,9.827001,0.080960,0.002796,-0.092145
1980-01-06T00:04:06.749385010Z,-0.311246,-0.190339,9.974244,0.147805,0.017311,-0.097472
1980-01-06T00:04:06.769265582Z,-0.209493,0.105345,9.859323,0.140482,0.036352,-0.169910
1980-01-06T00:04:06.789115635Z,-0.332794,0.270545,9.788394,0.077631,0.054728,-0.180030
1980-01-06T00:04:06.809001364Z,-0.610521,0.247800,9.788394,0.112252,0.064315,-0.148072
1980-01-06T00:04:06.848736468Z,-0.635661,-0.214281,9.716568,0.018509,0.096273,-0.084156
1980-01-06T00:04:06.868637197Z,-0.525527,-0.105345,9.817124,-0.033423,0.042477,-0.075634
1980-01-06T00:04:06.888468082Z,-0.608127,0.137667,9.965566,0.046472,0.149403,-0.120375
1980-01-06T00:04:06.908342457Z,-0.659603,0.099359,9.955989,0.077498,0.206528,-0.123571
1980-01-06T00:04:06.928204072Z,-0.614113,0.113725,9.687838,0.023569,0.158058,-0.070307
1980-01-06T00:04:06.948066155Z,-0.605733,0.096965,9.610625,-0.012783,0.098537,-0.050067
1980-01-06T00:04:06.987811832Z,-0.735020,0.310049,9.908105,-0.018642,-0.046339,0.053263
1980-01-06T00:04:07.007725478Z,-0.633266,0.086191,9.668684,-0.023436,-0.050334,0.092678
1980-01-06T00:04:07.027564437Z,-0.593762,-0.019154,9.582493,-0.049402,-0.011585,0.111853
1980-01-06T00:04:07.047421259Z,-0.535104,-0.110133,9.515455,-0.064182,-0.004128,0.127832
1980-01-06T00:04:07.067357718Z,-0.362722,-0.090980,10.133160,-0.089482,0.022371,0.147006
1980-01-06T00:04:07.087167041Z,-0.307655,-0.126893,9.960777,-0.135155,0.040214,0.164051
1980-01-06T00:04:07.107042770Z,-0.290895,-0.137667,9.965566,-0.124103,0.008256,0.166181
1980-01-06T00:04:07.146766624Z,-0.367510,-0.113725,9.955989,-0.104396,0.005726,0.182160
1980-01-06T00:04:07.166652405Z,-0.435745,-0.053870,9.740510,-0.089482,0.003329,0.175768
1980-01-06T00:04:07.186534905Z,-0.343568,-0.180762,9.692925,-0.090015,-0.016112,0.211455
1980-01-06T00:04:07.206378343Z,-0.345962,-0.021548,9.950302,-0.079096,0.000666,0.228499
1980-01-06T00:04:07.226277301Z,-0.448913,-0.131681,9.921572,-0.059122,0.003728,0.256196
1980-01-06T00:04:07.246149593Z,-0.472855,-0.314838,9.701305,-0.040746,0.090681,0.257261
1980-01-06T00:04:07.265979489Z,-0.123301,-0.104148,10.026917,-0.002264,0.175369,0.214651
1980-01-06T00:04:07.285827145Z,-0.037110,-0.215478,9.955989,0.021838,0.078164,0.219444
1980-01-06T00:04:07.305669384Z,-0.076614,-0.359130,9.678261,0.009587,-0.027297,0.222640
1980-01-06T00:04:07.325576259Z,-0.073023,-0.379481,9.797971,-0.023569,-0.024368,0.219444
1980-01-06T00:04:07.345429280Z,-0.010774,-0.195127,9.955989,-0.054195,0.013049,0.229032
1980-01-06T00:04:07.365302509Z,-0.100556,-0.169988,9.764452,-0.030094,0.045673,0.219444
1980-01-06T00:04:07.385163499Z,-0.049081,-0.259771,9.898528,0.001465,0.036752,0.211987
1980-01-06T00:04:07.405038238Z,-0.029928,-0.198719,9.941025,0.014115,-0.029028,0.198139
1980-01-06T00:04:07.424966051Z,-0.146046,-0.204704,9.850045,0.036352,-0.066046,0.186421
1980-01-06T00:04:07.444798916Z,-0.156820,-0.253785,9.806950,0.031825,-0.048070,0.194943
1980-01-06T00:04:07.464670530Z,-0.120907,-0.146046,9.936236,0.059255,-0.018243,0.186421
1980-01-06T00:04:07.484533030Z,-0.081403,-0.189142,9.874586,0.070973,-0.032890,0.169377
1980-01-06T00:04:07.504413551Z,-0.189142,-0.171185,9.745298,0.069642,-0.060321,0.150202
1980-01-06T00:04:07.524289280Z,-0.220267,-0.173580,9.683049,0.057258,-0.051532,0.134223
1980-01-06T00:04:07.544121207Z,-0.298078,-0.132878,9.644742,0.051932,0.026232,0.126766
1980-01-06T00:04:07.583876884Z,-0.196325,-0.148441,9.522039,0.080827,0.039548,0.130495
1980-01-06T00:04:07.603729488Z,-0.158017,-0.209493,9.483732,0.044075,-0.024102,0.144343
1980-01-06T00:04:07.623623499Z,-0.229843,-0.178368,9.469367,0.010919,-0.078430,0.150735
1980-01-06T00:04:07.643479332Z,-0.268151,-0.090980,9.481338,-0.009188,-0.073903,0.169377
1980-01-06T00:04:07.663342040Z,-0.300472,-0.102951,9.390358,-0.005859,-0.012517,0.149137
1980-01-06T00:04:07.683207978Z,-0.215478,-0.165200,9.375993,-0.029827,-0.002530,0.129962
1980-01-06T00:04:07.703143395Z,-0.234632,-0.026336,9.423578,-0.065780,-0.031026,0.136886
1980-01-06T00:04:07.762711103Z,-0.293290,-0.124498,9.448717,-0.049668,-0.038083,0.162453
1980-01-06T00:04:07.782648134Z,-0.671574,-0.232238,9.740809,-0.051532,0.022237,0.166714
1980-01-06T00:04:07.802504228Z,-0.773327,-0.190339,9.970653,-0.086420,0.082425,0.194411
1980-01-06T00:04:07.822343707Z,-0.573411,-0.090980,10.152313,-0.083091,0.056725,0.224771
1980-01-06T00:04:07.842188655Z,-0.402226,-0.100556,10.066122,-0.078031,0.001465,0.218379
1980-01-06T00:04:07.862082613Z,-0.190339,-0.059855,9.807548,-0.073237,-0.054728,0.189617
1980-01-06T00:04:07.901789488Z,-0.169988,0.019154,9.673472,-0.070574,-0.129696,0.226901
1980-01-06T00:04:07.921701363Z,-0.229843,-0.011971,9.721356,-0.035819,-0.078031,0.224771
1980-01-06T00:04:07.941520061Z,-0.290895,-0.129287,9.750087,-0.030360,-0.079096,0.236489
1980-01-06T00:04:07.961460322Z,-0.244209,-0.189142,9.730933,-0.054728,-0.061652,0.223705
1980-01-06T00:04:07.981254853Z,-0.125696,-0.144849,9.750087,-0.076699,-0.080294,0.211987
1980-01-06T00:04:08.001148967Z,-0.203507,-0.131681,9.735722,-0.074435,-0.127166,0.217314
1980-01-06T00:04:08.020971780Z,-0.350751,-0.087388,9.860220,-0.070307,-0.115714,0.256729
1980-01-06T00:04:08.040889957Z,-0.331597,-0.011971,10.056545,-0.001864,-0.034222,0.231162
1980-01-06T00:04:08.060718707Z,-0.154426,-0.199916,9.855432,-0.021572,-0.066712,0.259924
1980-01-06T00:04:08.080584905Z,-0.140061,-0.360327,9.845855,0.005859,-0.135022,0.275903
1980-01-06T00:04:08.100539749Z,-0.148441,-0.292093,9.898528,-0.006791,-0.123704,0.257794
1980-01-06T00:04:08.120348290Z,-0.031125,-0.277727,9.884163,-0.017577,-0.152066,0.286556
1980-01-06T00:04:08.140213655Z,0.013168,-0.265756,9.965566,0.004394,-0.126900,0.280164
1980-01-06T00:04:08.160229436Z,0.049081,-0.368707,10.023026,0.037151,-0.109056,0.254598
1980-01-06T00:04:08.180002249Z,0.108936,-0.247800,10.119094,0.031958,-0.136620,0.261522
1980-01-06T00:04:08.199835842Z,0.105345,-0.239420,10.042479,0.045274,-0.150468,0.265783
1980-01-06T00:04:08.219773811Z,0.105345,-0.195127,10.090364,0.047537,-0.140348,0.263653
1980-01-06T00:04:08.239558863Z,0.158017,-0.165200,10.186131,0.060187,-0.159923,0.276436
1980-01-06T00:04:08.259477353Z,0.192733,-0.178368,10.147824,0.066046,-0.193345,0.277501
1980-01-06T00:04:08.279322613Z,0.189142,-0.160412,10.190620,0.075367,-0.233825,0.279099
1980-01-06T00:04:08.299198603Z,0.258574,-0.161609,10.176255,0.076433,-0.250470,0.289752
1980-01-06T00:04:08.319004801Z,0.337582,-0.112527,10.152313,0.097871,-0.223040,0.294013
1980-01-06T00:04:08.378688707Z,0.433351,-0.112527,10.109218,0.092145,-0.292282,0.264185
1980-01-06T00:04:08.398521936Z,0.429759,-0.045490,9.975142,0.109056,-0.315851,0.267381
1980-01-06T00:04:08.418433134Z,0.460884,-0.113725,9.802759,0.140482,-0.306396,0.265251
1980-01-06T00:04:08.438259332Z,0.569820,-0.131681,9.763854,0.131161,-0.274439,0.264185
1980-01-06T00:04:08.458160894Z,0.602142,-0.050278,9.715970,0.137419,-0.277767,0.256729
1980-01-06T00:04:08.517740165Z,0.778116,0.084994,9.563339,0.132758,-0.271909,0.246076
1980-01-06T00:04:08.537637353Z,0.872687,-0.067038,9.453206,0.149270,-0.229032,0.224771
1980-01-06T00:04:08.557470321Z,0.995988,0.013168,9.577704,0.146341,-0.232893,0.214118
1980-01-06T00:04:08.577338290Z,1.134852,0.051475,9.450213,0.141014,-0.237820,0.205063
1980-01-06T00:04:08.597237509Z,1.233014,0.055067,9.435848,0.148604,-0.257527,0.189084
1980-01-06T00:04:08.617114644Z,1.353921,0.064643,9.520244,0.130495,-0.287754,0.174703
1980-01-06T00:04:08.656821259Z,1.241394,0.013168,9.616012,0.166581,-0.298940,0.143811
1980-01-06T00:04:08.676682613Z,1.332373,0.142455,9.558850,0.179630,-0.256196,0.127299
1980-01-06T00:04:08.696565269Z,1.401805,0.092177,9.509769,0.195609,-0.243945,0.110255
1980-01-06T00:04:08.716420998Z,1.480814,0.262165,9.586384,0.194943,-0.265650,0.094276
1980-01-06T00:04:08.736277457Z,1.408988,0.202310,9.203311,0.236888,-0.314785,0.067644
1980-01-06T00:04:08.756165269Z,1.327585,0.098162,9.634268,0.201734,-0.304000,0.068710
1980-01-06T00:04:08.776063446Z,1.352724,0.298078,9.582493,0.166447,-0.222241,0.078829
1980-01-06T00:04:08.815799071Z,1.496376,0.306458,9.572916,0.173372,-0.196142,0.057524
1980-01-06T00:04:08.835608759Z,1.476025,0.427365,9.520244,0.141946,-0.221841,0.071373
1980-01-06T00:04:08.855541207Z,1.441309,0.436942,9.496302,0.154730,-0.171108,0.056459
1980-01-06T00:04:08.875363446Z,1.472434,0.451307,9.510667,0.163651,-0.163118,0.059655
1980-01-06T00:04:08.895306727Z,1.437718,0.464475,9.443030,0.154596,-0.195343,0.051133
1980-01-06T00:04:08.915078238Z,1.349133,0.582988,9.362226,0.135821,-0.220376,0.064981
1980-01-06T00:04:08.935007769Z,1.312023,0.660800,9.266459,0.113717,-0.177766,0.093743
1980-01-06T00:04:08.974712352Z,1.535880,0.667982,9.338284,0.128631,-0.110787,0.115048
1980-01-06T00:04:08.994647561Z,1.538275,0.695516,9.352650,0.093477,-0.172173,0.118244
1980-01-06T00:04:09.014783238Z,1.534683,0.782904,9.194633,0.074968,-0.171108,0.119310
1980-01-06T00:04:09.034492769Z,1.568202,0.803255,9.185056,0.057258,-0.129962,0.135288
1980-01-06T00:04:09.054370321Z,1.668759,0.820014,9.242517,0.049934,-0.070707,0.137419
1980-01-06T00:04:09.074224332Z,1.740585,0.736217,9.496302,0.029694,-0.042744,0.159790
1980-01-06T00:04:09.094115894Z,1.860295,0.784101,9.649530,0.026365,-0.036752,0.162985
1980-01-06T00:04:09.133833446Z,2.053028,0.725443,9.845855,0.061386,-0.035553,0.125701
1980-01-06T00:04:09.153719071Z,2.087744,0.839168,9.874586,0.093077,-0.095607,0.110787
1980-01-06T00:04:09.173581832Z,1.956063,0.778116,9.735722,0.122372,-0.111054,0.111853
1980-01-06T00:04:09.193460998Z,1.903390,0.798466,9.715671,0.135288,-0.028096,0.104928
1980-01-06T00:04:09.213281779Z,2.000355,0.810437,9.798270,0.134623,0.012517,0.105994
1980-01-06T00:04:09.252922144Z,2.003947,0.895431,9.777920,0.132625,-0.111054,0.109190
1980-01-06T00:04:09.272912144Z,1.954866,0.887052,9.812336,0.138484,-0.103064,0.107592
1980-01-06T00:04:09.292870686Z,2.078167,1.016339,9.793182,0.147140,-0.083224,0.101200
1980-01-06T00:04:09.312660581Z,2.112883,1.022324,9.826701,0.147273,-0.109323,0.113983
1980-01-06T00:04:09.332503394Z,2.124854,1.082179,9.860220,0.134490,-0.086952,0.113983
1980-01-06T00:04:09.352392717Z,2.167950,1.027112,9.932047,0.123837,-0.099203,0.123571
1980-01-06T00:04:09.372233967Z,2.203863,1.024718,10.018238,0.124370,-0.173372,0.141680
1980-01-06T00:04:09.392142717Z,2.250550,1.095347,9.793182,0.149004,-0.193612,0.132093
1980-01-06T00:04:09.412023238Z,2.305616,1.143231,9.529820,0.180030,-0.176434,0.117179
1980-01-06T00:04:09.431867717Z,2.494758,1.221043,9.299378,0.190416,-0.183225,0.096939
1980-01-06T00:04:09.451810061Z,2.631228,1.217452,9.059958,0.143012,-0.235556,0.101200
1980-01-06T00:04:09.471585477Z,2.646790,1.025915,9.161114,0.097338,-0.207993,0.093743
1980-01-06T00:04:09.491484956Z,2.584541,0.948104,9.453206,0.084555,-0.190150,0.085221
1980-01-06T00:04:09.511308967Z,2.549825,0.884658,9.462783,0.078563,-0.203465,0.058589
1980-01-06T00:04:09.531422873Z,2.567781,0.924162,9.505878,0.069375,-0.213053,0.045806
1980-01-06T00:04:09.551053967Z,2.580950,0.889446,9.496302,0.079495,-0.227833,0.040480
1980-01-06T00:04:09.570925165Z,2.570175,0.916979,9.352650,0.063383,-0.190283,0.030893
1980-01-06T00:04:09.590845113Z,2.657564,1.013944,9.376592,0.076433,-0.169910,0.025566
1980-01-06T00:04:09.610658186Z,2.674323,1.034295,9.357438,0.080694,-0.196142,0.008522
1980-01-06T00:04:09.630532821Z,2.634819,1.149217,9.079711,0.129962,-0.223972,0.010653
1980-01-06T00:04:09.650390008Z,2.273294,1.411382,9.639954,0.338487,-0.156594,0.018109
1980-01-06T00:04:09.670290581Z,2.600103,1.252167,9.778817,0.452471,-0.071506,-0.044741
1980-01-06T00:04:09.690181206Z,2.591723,1.241394,9.577704,0.549010,-0.235024,-0.015979
1980-01-06T00:04:09.710000529Z,2.424129,1.243788,10.061633,0.541287,-0.291616,-0.036752
1980-01-06T00:04:09.729879852Z,2.422932,1.436521,9.873688,0.498144,-0.251402,-0.026099
1980-01-06T00:04:09.749778394Z,2.495955,1.635240,9.572019,0.431165,-0.197873,0.022903
1980-01-06T00:04:09.769616988Z,2.657564,1.642422,9.352650,0.391618,-0.139816,0.044741
1980-01-06T00:04:09.789508967Z,2.931700,1.669956,9.247305,0.325172,-0.123171,0.029827
1980-01-06T00:04:09.809347977Z,2.953248,1.823185,9.017462,0.285357,-0.279099,0.033023
1980-01-06T00:04:09.829246935Z,2.864662,1.872266,8.888175,0.267248,-0.315851,0.008522
1980-01-06T00:04:09.888833810Z,3.100491,1.926135,8.797194,0.280297,-0.233825,0.045806
1980-01-06T00:04:09.908690060Z,3.096900,1.848324,8.763676,0.257128,-0.263120,0.047937
1980-01-06T00:04:09.928595373Z,3.148375,1.966837,8.719982,0.263253,-0.244079,0.051133
1980-01-06T00:04:09.948445737Z,3.306392,2.067393,8.787020,0.283360,-0.233958,0.028762
1980-01-06T00:04:09.968310477Z,3.454833,2.118869,8.758887,0.284825,-0.300804,0.008522
1980-01-06T00:04:09.988184227Z,3.543418,2.304419,9.520244,0.204531,-0.333161,0.001065
1980-01-06T00:04:10.008081935Z,3.514688,2.230199,7.762900,0.227966,-0.335425,0.024501
1980-01-06T00:04:10.027912717Z,3.737349,2.317587,8.797194,0.220643,-0.209857,-0.028762
1980-01-06T00:04:10.047784331Z,4.045004,2.252944,8.509891,0.178432,-0.335957,-0.042611
1980-01-06T00:04:10.067624748Z,3.867833,2.272097,8.514679,0.189217,-0.394680,-0.093743
1980-01-06T00:04:10.087589019Z,3.775656,2.365471,8.648754,0.205196,-0.320112,-0.104396
1980-01-06T00:04:10.107384175Z,3.904943,2.452860,8.687061,0.193212,-0.265916,-0.099070
1980-01-06T00:04:10.127290165Z,3.934870,2.537854,8.797194,0.232627,-0.269245,-0.113983
1980-01-06T00:04:10.147148081Z,3.967192,2.516306,9.003097,0.241815,-0.288953,-0.147006
1980-01-06T00:04:10.186882092Z,3.828329,2.682703,8.998607,0.248073,-0.421445,-0.159257
1980-01-06T00:04:10.206747092Z,3.797204,2.735375,8.931569,0.248739,-0.362855,-0.146474
1980-01-06T00:04:10.226605112Z,3.854665,2.862268,8.906430,0.255796,-0.285357,-0.131560
1980-01-06T00:04:10.246462508Z,3.950433,2.985569,8.638280,0.267514,-0.233559,-0.130495
1980-01-06T00:04:10.266336414Z,4.052186,3.056198,8.505102,0.251136,-0.232227,-0.122505
1980-01-06T00:04:10.286230008Z,3.991134,2.965219,8.385392,0.230230,-0.235290,-0.113983
1980-01-06T00:04:10.306075373Z,3.961207,2.890999,8.385392,0.228233,-0.242081,-0.118244
1980-01-06T00:04:10.365686831Z,3.870227,3.117251,8.318355,0.223040,-0.231695,-0.096939
1980-01-06T00:04:10.385566571Z,4.016273,3.160346,8.069358,0.251003,-0.233958,-0.102265
1980-01-06T00:04:10.405421987Z,4.167108,3.143587,7.782053,0.266715,-0.246342,-0.129962
1980-01-06T00:04:10.425301779Z,4.231751,3.343503,7.901165,0.297075,-0.268713,-0.138484
1980-01-06T00:04:10.465034487Z,4.241328,3.399766,7.546823,0.185489,-0.109190,-0.094808
1980-01-06T00:04:10.484924852Z,4.231751,3.325546,7.518691,0.164450,0.038216,-0.077764
1980-01-06T00:04:10.504762352Z,4.425682,3.264494,7.715016,0.152865,0.009987,-0.087352
1980-01-06T00:04:10.524639175Z,4.473566,3.214216,7.863456,0.126234,-0.088683,-0.120375
1980-01-06T00:04:10.544647404Z,4.502296,3.241749,7.825149,0.129163,-0.177366,-0.150202
1980-01-06T00:04:10.564375737Z,4.347870,3.299210,7.624036,0.126900,-0.188152,-0.154463
1980-01-06T00:04:10.584255529Z,4.313154,3.348291,7.647978,0.127832,-0.090947,-0.131027
1980-01-06T00:04:10.623832196Z,4.642357,3.429694,7.882610,0.165249,0.035154,-0.151267
1980-01-06T00:04:10.643851883Z,4.617218,3.335123,7.906552,0.150468,-0.017444,-0.190682
1980-01-06T00:04:10.663724018Z,4.633977,3.433285,7.868544,0.116513,-0.140215,-0.230630
1980-01-06T00:04:10.683598029Z,4.320337,3.526659,7.791929,0.090414,-0.229431,-0.242347
1980-01-06T00:04:10.703505685Z,4.182671,3.700239,7.863756,0.101600,-0.156327,-0.248739
1980-01-06T00:04:10.723370268Z,4.273650,3.670311,7.771579,0.140215,-0.085487,-0.230630
1980-01-06T00:04:10.743334279Z,4.280833,3.615245,7.723695,0.134889,-0.085754,-0.213585
1980-01-06T00:04:10.763065112Z,4.399345,3.659537,7.738060,0.088284,-0.126766,-0.198672
1980-01-06T00:04:10.802828498Z,4.568137,3.696647,7.595305,0.050600,-0.231828,-0.241815
1980-01-06T00:04:10.822982091Z,4.528633,3.734955,7.691074,0.031026,-0.233559,-0.243945
1980-01-06T00:04:10.842558081Z,4.544195,3.743334,7.624036,0.052065,-0.127299,-0.272707
1980-01-06T00:04:10.862258029Z,4.498705,3.873818,7.580940,0.078031,-0.086286,-0.267381
1980-01-06T00:04:10.882191102Z,4.443638,3.833117,7.624036,0.100534,-0.037284,-0.276969
1980-01-06T00:04:10.902027560Z,4.526238,3.861847,7.667132,0.104795,-0.049668,-0.309992
1980-01-06T00:04:10.921988914Z,4.540604,4.054581,7.719804,0.096540,-0.131693,-0.330232
1980-01-06T00:04:10.941894643Z,4.436456,4.119224,7.542633,0.101333,-0.172306,-0.350472
1980-01-06T00:04:10.961766883Z,4.398149,4.165911,7.571363,0.096140,-0.141281,-0.372842
1980-01-06T00:04:10.981634175Z,4.310760,4.162320,7.647978,0.106393,-0.157260,-0.366451
1980-01-06T00:04:11.001490216Z,4.170700,4.228160,7.566575,0.108923,-0.139949,-0.360059
1980-01-06T00:04:11.021373810Z,4.170700,4.317943,7.475595,0.110388,-0.085754,-0.381364
1980-01-06T00:04:11.041230320Z,4.331111,4.327519,7.585729,0.086153,-0.150335,-0.380299
1980-01-06T00:04:11.061102352Z,4.273650,4.291606,7.561787,0.070174,-0.242347,-0.401604
1980-01-06T00:04:11.100843445Z,4.095282,4.325125,7.475595,0.043942,-0.253133,-0.411192
1980-01-06T00:04:11.120705112Z,4.102465,4.387374,7.442077,0.047271,-0.222906,-0.401604
1980-01-06T00:04:11.140593029Z,4.016273,4.456807,7.312790,0.053263,-0.206528,-0.397343
1980-01-06T00:04:11.160444175Z,4.015076,4.505888,7.193379,0.040480,-0.192014,-0.380832
1980-01-06T00:04:11.180330320Z,4.101267,4.608838,7.134721,0.029694,-0.141281,-0.392550
1980-01-06T00:04:11.200170581Z,4.159925,4.644751,7.059304,0.015180,-0.177100,-0.386158
1980-01-06T00:04:11.220083966Z,4.134786,4.618415,6.904878,-0.000932,-0.168445,-0.400006
1980-01-06T00:04:11.259798602Z,4.161122,4.720169,6.987178,-0.043809,-0.128231,-0.398409
1980-01-06T00:04:11.279679174Z,4.209007,4.629189,6.886622,-0.041412,-0.144610,-0.409061
1980-01-06T00:04:11.299528654Z,4.193444,4.586093,6.939294,-0.074568,-0.139949,-0.428236
1980-01-06T00:04:11.319410164Z,4.126407,4.726154,7.011120,-0.087618,-0.144743,-0.435693
1980-01-06T00:04:11.339304852Z,4.078523,4.614824,6.968025,-0.076699,-0.133957,-0.441019
1980-01-06T00:04:11.359137924Z,4.143166,4.654328,7.035062,-0.076033,-0.100135,-0.450606
1980-01-06T00:04:11.379020529Z,4.077325,4.660314,6.977602,-0.068976,-0.108391,-0.456998
1980-01-06T00:04:11.398878602Z,4.025850,4.690241,6.963236,-0.087218,-0.121041,-0.456998
1980-01-06T00:04:11.418738914Z,4.021062,4.781221,7.087735,-0.120641,-0.092944,-0.454868
1980-01-06T00:04:11.438616414Z,4.023456,4.865018,7.169137,-0.117578,-0.076300,-0.451672
1980-01-06T00:04:11.458480372Z,4.071340,4.849455,7.226599,-0.105062,-0.036885,-0.472977
1980-01-06T00:04:11.478362976Z,4.023456,4.961983,7.264906,-0.086420,-0.078430,-0.501739
1980-01-06T00:04:11.498212768Z,3.863045,5.042189,7.279271,-0.079229,-0.134623,-0.518783
1980-01-06T00:04:11.517885841Z,3.682282,5.102044,7.140407,-0.070441,-0.122905,-0.525175
1980-01-06T00:04:11.537840789Z,3.604471,4.987122,7.068581,-0.093743,-0.060986,-0.526240
1980-01-06T00:04:11.557817924Z,3.629610,5.103241,7.149984,-0.112652,-0.051133,-0.521979
1980-01-06T00:04:11.577707820Z,3.567361,5.183447,7.250541,-0.118777,-0.065647,-0.524110
1980-01-06T00:04:11.597582039Z,3.336320,5.319916,7.106888,-0.079362,-0.092944,-0.534762
1980-01-06T00:04:11.617433810Z,3.107674,5.232528,6.915352,-0.065247,-0.072571,-0.529436
1980-01-06T00:04:11.637196414Z,3.057395,5.203797,6.900987,-0.103464,-0.025300,-0.503870
1980-01-06T00:04:11.657034643Z,3.110068,5.368997,6.930017,-0.145408,0.012783,-0.492684
1980-01-06T00:04:11.676885320Z,2.980781,5.367800,6.943185,-0.141547,-0.004527,-0.492684
1980-01-06T00:04:11.696902456Z,3.069367,5.385756,7.188591,-0.170708,-0.049135,-0.482032
1980-01-06T00:04:11.716776414Z,3.149572,5.383362,7.364564,-0.195076,-0.062584,-0.471379
1980-01-06T00:04:11.736653601Z,3.064578,5.467160,7.240066,-0.155928,-0.023702,-0.482032
1980-01-06T00:04:11.756513341Z,2.929306,5.371391,7.183503,-0.127565,-0.018509,-0.467651
1980-01-06T00:04:11.776415320Z,2.979584,5.245696,7.207445,-0.169510,0.008922,-0.450606
1980-01-06T00:04:11.796259747Z,3.077746,5.403713,7.351097,-0.208392,-0.024901,-0.443150
1980-01-06T00:04:11.816151153Z,2.979584,5.389348,7.370251,-0.205330,-0.081093,-0.443150
1980-01-06T00:04:11.836010268Z,2.938883,5.335478,7.384616,-0.181361,-0.073636,-0.442084
1980-01-06T00:04:11.855858653Z,2.876633,5.295974,7.394193,-0.189351,-0.034088,-0.444215
1980-01-06T00:04:11.875760893Z,2.853889,5.249287,7.375039,-0.205196,-0.039015,-0.443150
1980-01-06T00:04:11.895609591Z,2.837129,5.191826,7.475595,-0.226502,-0.051798,-0.426105
1980-01-06T00:04:11.915457716Z,2.879028,5.245696,7.565977,-0.210523,-0.026898,-0.426105
1980-01-06T00:04:11.935342143Z,2.873042,5.187038,7.427113,-0.181894,-0.031425,-0.465520
1980-01-06T00:04:11.955204539Z,2.685097,5.108029,7.340922,-0.189484,-0.118777,-0.460194
1980-01-06T00:04:11.975089695Z,2.473210,5.066131,7.345710,-0.230496,-0.084555,-0.447411
1980-01-06T00:04:12.014809435Z,2.450465,5.206192,7.351097,-0.229964,-0.041812,-0.421844
1980-01-06T00:04:12.034679695Z,2.442086,5.165490,7.245752,-0.234624,-0.060587,-0.439954
1980-01-06T00:04:12.054615424Z,2.388216,5.194221,7.274483,-0.270577,-0.155528,-0.426105
1980-01-06T00:04:12.074431414Z,2.360683,5.129577,7.398981,-0.324506,-0.146341,-0.395213
1980-01-06T00:04:12.094292403Z,2.375048,5.172673,7.470807,-0.318780,-0.068576,-0.387756
1980-01-06T00:04:12.114162455Z,2.348712,5.049371,7.528268,-0.274572,-0.022237,-0.387756
1980-01-06T00:04:12.134027091Z,2.360683,5.135562,7.590517,-0.261789,0.021705,-0.389886
1980-01-06T00:04:12.153908132Z,2.436100,5.090073,7.604882,-0.282162,0.007856,-0.390952
1980-01-06T00:04:12.173779799Z,2.378639,5.102044,7.690176,-0.306796,-0.024368,-0.392550
1980-01-06T00:04:12.193646153Z,2.218228,5.170279,7.791929,-0.310524,-0.016645,-0.376571
1980-01-06T00:04:12.213499747Z,2.160767,4.982334,7.857770,-0.292548,0.025966,-0.364853
1980-01-06T00:04:12.233375685Z,2.145205,4.938041,7.867347,-0.283094,0.063383,-0.380832
1980-01-06T00:04:12.253245216Z,2.021903,4.983531,7.934384,-0.288820,0.020906,-0.357396
1980-01-06T00:04:12.273134226Z,1.856703,4.926070,8.006210,-0.288820,0.060853,-0.346743
1980-01-06T00:04:12.293040112Z,1.872266,4.829105,7.963115,-0.276436,0.079229,-0.353135
1980-01-06T00:04:12.312840580Z,1.813608,4.722563,8.025364,-0.280164,0.017311,-0.343547
1980-01-06T00:04:12.332558809Z,1.610101,4.781221,7.953538,-0.279499,0.030893,-0.333960
1980-01-06T00:04:12.352585580Z,1.563414,4.714183,7.800309,-0.255930,0.096806,-0.316916
1980-01-06T00:04:12.372480632Z,1.647211,4.746505,7.829040,-0.274971,0.120774,-0.300937
1980-01-06T00:04:12.392184278Z,1.686715,4.803966,7.877223,-0.302402,0.103331,-0.289219
1980-01-06T00:04:12.412230059Z,1.620875,4.902128,7.906552,-0.313986,0.072438,-0.291882
1980-01-06T00:04:12.432071622Z,1.581370,4.832696,7.959224,-0.320378,0.082292,-0.296143
1980-01-06T00:04:12.451927091Z,1.589750,4.733337,8.131607,-0.337289,0.095607,-0.283360
1980-01-06T00:04:12.471794539Z,1.497573,4.666299,8.198645,-0.359793,0.081493,-0.263120
1980-01-06T00:04:12.491532455Z,1.397017,4.641160,8.375815,-0.376704,0.111586,-0.239684
1980-01-06T00:04:12.511510841Z,1.489193,4.527435,8.600870,-0.391218,0.145941,-0.232227
1980-01-06T00:04:12.531326934Z,1.477222,4.554969,8.792406,-0.349007,0.127033,-0.232227
1980-01-06T00:04:12.551450059Z,1.335965,4.571728,8.739734,-0.295744,0.099868,-0.248206
1980-01-06T00:04:12.571158653Z,1.191115,4.358644,8.663119,-0.273906,0.072971,-0.248206
1980-01-06T00:04:12.590831049Z,1.176750,4.246117,8.739734,-0.300804,0.069508,-0.235423
1980-01-06T00:04:12.610844330Z,1.127669,4.314352,8.706215,-0.315451,0.096007,-0.229032
1980-01-06T00:04:12.630755841Z,1.098939,4.485537,8.701427,-0.287355,0.088417,-0.202400
1980-01-06T00:04:12.650644747Z,1.072602,4.380192,8.500314,-0.263786,0.139550,-0.210922
1980-01-06T00:04:12.670486153Z,1.186327,4.250905,8.462007,-0.288686,0.074302,-0.181095
1980-01-06T00:04:12.690389382Z,1.265336,4.106056,8.576928,-0.362989,0.023436,-0.145941
1980-01-06T00:04:12.710198705Z,1.314417,3.987543,8.596082,-0.383894,0.059788,-0.144876
1980-01-06T00:04:12.730230632Z,1.283292,3.900155,8.610447,-0.354333,0.123571,-0.168312
1980-01-06T00:04:12.749958601Z,1.328782,3.898957,8.801983,-0.355931,0.141281,-0.165116
1980-01-06T00:04:12.769879591Z,1.307234,3.756502,8.854655,-0.339686,0.148604,-0.185356
1980-01-06T00:04:12.789549591Z,1.200692,3.677494,8.739734,-0.286556,0.146207,-0.227966
1980-01-06T00:04:12.809699382Z,0.900220,3.651158,8.672696,-0.264585,0.085754,-0.233293
1980-01-06T00:04:12.829410476Z,0.731429,3.502717,8.615235,-0.275903,0.126766,-0.200270
1980-01-06T00:04:12.849163705Z,0.758962,3.412935,8.567351,-0.268713,0.238486,-0.183225
1980-01-06T00:04:12.869171153Z,0.905008,3.454833,8.620024,-0.264585,0.268313,-0.187486
1980-01-06T00:04:12.889051413Z,0.984017,3.568558,8.754099,-0.284958,0.224771,-0.200270
1980-01-06T00:04:12.908893705Z,0.861913,3.361459,8.620024,-0.270577,0.176434,-0.225836
1980-01-06T00:04:12.928812038Z,0.661997,3.436877,8.706215,-0.280564,0.186687,-0.217314
1980-01-06T00:04:12.948676049Z,0.465672,3.585317,8.901941,-0.298540,0.215583,-0.210922
1980-01-06T00:04:12.968533288Z,0.298078,3.582923,8.825327,-0.324506,0.150602,-0.197074
1980-01-06T00:04:12.988405268Z,0.324414,3.531447,9.064747,-0.367383,0.080161,-0.144876
1980-01-06T00:04:13.008299486Z,0.383072,3.666720,9.313744,-0.414121,0.120242,-0.120375
1980-01-06T00:04:13.028132768Z,0.518345,3.606865,9.553164,-0.437424,0.083756,-0.118244
1980-01-06T00:04:13.048017143Z,0.422577,3.527856,9.826103,-0.428902,-0.013848,-0.122505
1980-01-06T00:04:13.067893757Z,0.184354,3.253720,9.774029,-0.404268,-0.054462,-0.118244
1980-01-06T00:04:13.087713288Z,0.037110,3.029862,9.841066,-0.374440,-0.021039,-0.094808
1980-01-06T00:04:13.107589434Z,0.120907,2.862268,9.884163,-0.396145,0.020906,-0.056459
1980-01-06T00:04:13.127479434Z,0.161609,2.832341,9.764452,-0.358195,0.038616,-0.037284
1980-01-06T00:04:13.147355945Z,0.241814,2.707842,9.606435,-0.299073,0.060587,-0.036219
1980-01-06T00:04:13.167285372Z,0.284910,2.646790,9.553762,-0.246076,0.041545,-0.041545
1980-01-06T00:04:13.187061153Z,0.235829,2.547431,9.308955,-0.213852,0.010386,-0.050067
1980-01-06T00:04:13.226835580Z,0.075417,2.535460,9.165303,-0.197740,0.090681,-0.031958
1980-01-06T00:04:13.246698705Z,0.061052,2.688689,9.318532,-0.179364,0.101466,0.021305
1980-01-06T00:04:13.266581778Z,0.112527,2.397793,9.213786,-0.169510,0.212254,0.021305
1980-01-06T00:04:13.286281830Z,0.202310,2.439692,9.343073,-0.141414,0.221175,0.010653
1980-01-06T00:04:13.306318392Z,0.092177,2.598906,9.462783,-0.166714,0.180296,0.024501
1980-01-06T00:04:13.365805424Z,-0.155623,2.454057,9.659107,-0.196408,0.142612,0.061785
1980-01-06T00:04:13.405617090Z,-0.081403,2.427721,9.592070,-0.173105,0.237021,0.059655
1980-01-06T00:04:13.425513965Z,-0.073023,2.282871,9.620800,-0.186022,0.123038,0.091613
1980-01-06T00:04:13.445239538Z,-0.076614,2.128445,9.553762,-0.212254,0.076699,0.098004
1980-01-06T00:04:13.465163080Z,-0.107739,2.244564,9.429264,-0.190016,0.062851,0.110787
1980-01-06T00:04:13.485196726Z,-0.079009,2.238579,9.328708,-0.188818,0.131427,0.112918
1980-01-06T00:04:13.505038028Z,0.093374,2.181118,9.208998,-0.184024,0.154863,0.126766
1980-01-06T00:04:13.524834955Z,0.169988,2.064999,9.180267,-0.206262,0.151134,0.110787
1980-01-06T00:04:13.544747403Z,0.260968,2.044648,9.280225,-0.247274,0.141147,0.115048
1980-01-06T00:04:13.564610684Z,0.304064,2.032677,9.347262,-0.275637,0.172040,0.095874
1980-01-06T00:04:13.584447663Z,0.174777,2.409764,10.017639,0.011984,0.225570,0.074568
1980-01-06T00:04:13.604316934Z,0.033519,1.959654,9.582493,-0.128764,0.299872,0.080960
1980-01-06T00:04:13.624174069Z,0.143652,1.753753,10.018238,-0.065780,0.277501,0.061785
1980-01-06T00:04:13.644084330Z,0.211887,1.796848,10.002975,-0.047271,0.189484,0.027164
1980-01-06T00:04:13.663936361Z,0.049081,1.740585,9.912893,-0.051798,0.137552,0.012783
1980-01-06T00:04:13.683624799Z,-0.057461,1.715446,9.678261,-0.027697,0.155795,0.009587
1980-01-06T00:04:13.703547715Z,-0.074220,1.653196,9.323919,-0.046073,0.163252,0.012783
1980-01-06T00:04:13.723431830Z,-0.077812,1.568202,9.242517,-0.094276,0.141946,0.011718
1980-01-06T00:04:13.743281986Z,-0.220267,1.720234,9.386168,-0.159656,0.126900,0.023436
1980-01-06T00:04:13.763186882Z,-0.433351,1.814805,9.386168,-0.165648,0.188285,0.015979
1980-01-06T00:04:13.783108965Z,-0.427365,2.029086,9.481936,-0.196408,0.187886,0.012783
1980-01-06T00:04:13.822808132Z,-0.590171,1.669956,9.572916,-0.180962,0.165648,0.041545
1980-01-06T00:04:13.842567976Z,-0.519542,1.651999,9.797073,-0.204531,0.202400,0.045274
1980-01-06T00:04:13.862596048Z,-0.597353,1.684321,9.984719,-0.210123,0.207860,0.044741
1980-01-06T00:04:13.882468601Z,-0.658405,1.642422,9.874586,-0.227034,0.150069,0.055394
1980-01-06T00:04:13.902317246Z,-0.839168,1.638831,9.769240,-0.198006,0.086553,0.066046
1980-01-06T00:04:13.922194538Z,-0.883460,1.643619,9.869798,-0.188818,0.094010,0.087352
1980-01-06T00:04:13.942071986Z,-0.793678,1.486799,9.630377,-0.159124,0.074835,0.095874
1980-01-06T00:04:13.961942038Z,-0.723049,1.338359,9.663896,-0.135022,0.038083,0.112918
1980-01-06T00:04:13.981795996Z,-0.790087,1.235408,9.568128,-0.104928,0.143278,0.078829
1980-01-06T00:04:14.001676726Z,-0.782904,1.368286,9.788394,-0.135688,0.151267,0.087352
1980-01-06T00:04:14.021530892Z,-0.805649,1.329979,9.587281,-0.194011,0.086020,0.108657
1980-01-06T00:04:14.041406101Z,-0.940921,1.408988,9.543288,-0.175768,0.058589,0.110255
1980-01-06T00:04:14.061301673Z,-1.012747,1.341950,9.405322,-0.150868,0.070973,0.117179
1980-01-06T00:04:14.081141830Z,-0.852336,1.288081,9.520244,-0.233426,0.064848,0.153398
1980-01-06T00:04:14.101020371Z,-0.754174,1.326388,9.266459,-0.291616,0.089083,0.162985
1980-01-06T00:04:14.120884642Z,-0.764947,1.373075,9.577704,-0.283760,0.115048,0.161920
1980-01-06T00:04:14.140755475Z,-0.800860,1.392228,9.879375,-0.244212,0.099469,0.200270
1980-01-06T00:04:14.160643913Z,-0.847547,1.298854,9.927258,-0.171907,0.190682,0.156594
1980-01-06T00:04:14.180484955Z,-0.723049,1.115698,9.884163,-0.116913,0.147672,0.167246
1980-01-06T00:04:14.200367142Z,-0.697910,0.995988,10.051757,-0.126500,0.144876,0.167246
1980-01-06T00:04:14.220250475Z,-0.691924,1.045069,9.975142,-0.125035,0.142346,0.128897
1980-01-06T00:04:14.240088861Z,-0.788889,1.090559,9.825804,-0.096273,0.047271,0.120907
1980-01-06T00:04:14.260051413Z,-0.824802,1.126472,9.902418,-0.096939,-0.003196,0.126234
1980-01-06T00:04:14.279848705Z,-0.887052,1.092953,9.955989,-0.105062,-0.023303,0.157659
1980-01-06T00:04:14.299696048Z,-0.855927,0.894234,10.003873,-0.152466,0.011984,0.189617
1980-01-06T00:04:14.319570319Z,-0.744597,1.004368,9.999084,-0.142346,0.081093,0.165116
1980-01-06T00:04:14.339323757Z,-0.800860,1.109712,10.070312,-0.092278,0.052198,0.166181
1980-01-06T00:04:14.359324121Z,-0.837971,1.054646,9.979931,-0.053929,-0.005992,0.150202
1980-01-06T00:04:14.379178548Z,-0.677559,1.010353,9.994296,-0.052331,-0.043809,0.173638
1980-01-06T00:04:14.399056830Z,-0.608127,0.966060,9.817124,-0.023436,0.014781,0.139550
1980-01-06T00:04:14.418909590Z,-0.697910,1.103727,9.683049,0.032091,0.001198,0.095874
1980-01-06T00:04:14.438852402Z,-0.786495,1.155202,9.749189,0.007590,-0.079895,0.126234
1980-01-06T00:04:14.458671725Z,-0.622492,1.130063,9.826701,0.017577,-0.059921,0.138484
1980-01-06T00:04:14.478542194Z,-0.568623,0.839168,9.553762,0.055793,-0.037684,0.082025
1980-01-06T00:04:14.498412350Z,-0.651223,0.798466,9.539397,0.006924,-0.071240,0.099070
1980-01-06T00:04:14.518271204Z,-0.741005,0.867898,9.572916,-0.005060,-0.007324,0.073503
1980-01-06T00:04:14.538141100Z,-0.582988,0.828394,9.639954,-0.041279,0.017710,0.084156
1980-01-06T00:04:14.558008548Z,-0.617704,0.820014,9.529820,-0.101733,0.038882,0.075634
1980-01-06T00:04:14.577865371Z,-0.766145,0.800860,9.587281,-0.141946,0.098404,0.098004
1980-01-06T00:04:14.597753444Z,-0.695516,0.865504,9.582493,-0.152066,0.192147,0.073503
1980-01-06T00:04:14.617601309Z,-0.679953,0.903811,9.726145,-0.147140,0.154463,0.068177
1980-01-06T00:04:14.637605423Z,-0.762553,0.933739,9.788394,-0.167113,0.119709,0.057524
1980-01-06T00:04:14.657373757Z,-0.990002,0.857124,9.659107,-0.164317,0.114649,0.053263
1980-01-06T00:04:14.677207663Z,-1.034295,1.012747,9.888951,-0.137419,0.133158,0.054328
1980-01-06T00:04:14.697087819Z,-1.049857,0.926556,10.056545,-0.098803,0.150602,0.061785
1980-01-06T00:04:14.717078496Z,-1.115698,0.820014,9.716568,-0.077764,0.182293,0.034088
1980-01-06T00:04:14.736812506Z,-1.206678,0.942118,9.836278,-0.090547,0.142080,0.056459
1980-01-06T00:04:14.756701986Z,-1.307234,0.973243,9.946412,-0.093077,0.074835,0.088417
1980-01-06T00:04:14.776555111Z,-1.339556,0.938527,9.769240,-0.098404,0.062318,0.094808
1980-01-06T00:04:14.796431309Z,-1.448492,0.745794,9.797971,-0.086686,0.078829,0.120375
1980-01-06T00:04:14.816340319Z,-1.358709,0.758962,9.750087,-0.095607,0.126234,0.124636
1980-01-06T00:04:14.836164954Z,-1.335965,0.699107,9.845855,-0.090414,0.124103,0.127832
1980-01-06T00:04:14.856056986Z,-1.361104,0.847547,9.941624,-0.054328,0.079229,0.135288
1980-01-06T00:04:14.875882715Z,-1.309628,0.870292,9.812336,-0.051798,0.045274,0.141680
1980-01-06T00:04:14.895746256Z,-1.326388,0.890643,9.683049,-0.025966,0.025300,0.152333
1980-01-06T00:04:14.915651465Z,-1.191115,0.701501,9.558551,-0.034887,-0.006791,0.167246
1980-01-06T00:04:14.935503913Z,-1.258153,0.639252,9.726145,-0.077631,-0.015180,0.175768
1980-01-06T00:04:14.955387923Z,-1.260547,0.784101,9.764452,-0.125568,0.066046,0.199204
1980-01-06T00:04:14.975282506Z,-1.112107,0.841562,10.003873,-0.078031,0.155795,0.172573
1980-01-06T00:04:14.995114694Z,-0.966060,0.834379,9.932047,-0.057791,0.087485,0.178964
1980-01-06T00:04:15.015117923Z,-0.909797,0.610521,9.989508,-0.071772,0.023436,0.185356
1980-01-06T00:04:15.034851465Z,-0.866701,0.780510,10.199299,-0.025433,0.008389,0.151800
1980-01-06T00:04:15.054830423Z,-0.903811,0.495600,10.046968,0.031026,0.000666,0.104396
1980-01-06T00:04:15.074603652Z,-0.871489,0.553061,9.917682,0.020639,-0.032624,0.071373
1980-01-06T00:04:15.094457819Z,-0.799663,0.502782,9.826701,-0.028229,-0.061785,0.077764
1980-01-06T00:04:15.114378965Z,-0.878672,0.458490,9.706991,-0.039148,0.008788,0.013848
1980-01-06T00:04:15.134190267Z,-1.023521,0.451307,9.562741,-0.077631,0.032491,0.001065
1980-01-06T00:04:15.154077454Z,-1.151611,0.666785,9.888352,-0.083623,0.013848,0.045806
1980-01-06T00:04:15.193814381Z,-1.118092,0.442927,9.802759,-0.043809,-0.222906,0.113983
1980-01-06T00:04:15.213673965Z,-1.230620,0.416591,9.836278,-0.059788,-0.211188,0.170442
1980-01-06T00:04:15.233542298Z,-1.053449,0.413000,9.868899,-0.038483,-0.116114,0.172040
1980-01-06T00:04:15.253398860Z,-0.762553,0.395043,9.764452,-0.040613,-0.115847,0.144876
1980-01-06T00:04:15.273268652Z,-0.774524,0.456095,9.663896,-0.093610,-0.188285,0.159790
1980-01-06T00:04:15.293142923Z,-0.799663,0.526724,9.836278,-0.089615,-0.175768,0.154463
1980-01-06T00:04:15.313034069Z,-0.888249,0.438139,9.735722,-0.023702,-0.133957,0.117179
1980-01-06T00:04:15.332886100Z,-0.834379,0.350751,9.495703,-0.040480,-0.129296,0.128897
1980-01-06T00:04:15.352896256Z,-0.885855,0.375890,9.486725,-0.077764,-0.099203,0.139550
1980-01-06T00:04:15.372629225Z,-0.793678,0.290895,9.438841,-0.084289,-0.054994,0.109722
1980-01-06T00:04:15.392503496Z,-0.721852,0.313640,9.491513,-0.084688,-0.047671,0.094808
1980-01-06T00:04:15.412410527Z,-0.457293,0.365116,9.587281,-0.072971,-0.169910,0.078829
1980-01-06T00:04:15.432235319Z,0.329203,0.521936,12.067675,-0.357662,-0.459928,0.194943
1980-01-06T00:04:15.452118756Z,-0.417788,0.275333,9.922470,-0.088816,-0.669385,0.137419
1980-01-06T00:04:15.491843652Z,-0.519542,0.404620,10.133160,0.105328,-0.007324,0.002131
1980-01-06T00:04:15.511756985Z,-0.617704,0.294487,9.893740,0.147938,0.196674,-0.046872
1980-01-06T00:04:15.531711725Z,-0.453701,0.251391,9.606435,0.138617,0.107325,-0.068177
1980-01-06T00:04:15.551476829Z,-0.665588,0.420182,9.486725,0.038616,-0.045274,-0.044741
1980-01-06T00:04:15.571323183Z,-0.745794,0.477643,9.304766,-0.097338,-0.125568,0.040480
1980-01-06T00:04:15.591188756Z,-0.672771,0.541090,9.539397,-0.131427,-0.188552,0.101200
1980-01-06T00:04:15.611072819Z,-0.512359,0.379481,9.774029,-0.128231,-0.160322,0.112918
1980-01-06T00:04:15.630923183Z,-0.367510,0.240617,9.811439,-0.106660,-0.186954,0.113451
1980-01-06T00:04:15.650777923Z,-0.360327,0.290895,9.783606,-0.039415,-0.192280,0.087352
1980-01-06T00:04:15.670800787Z,-0.287304,0.314838,9.802759,-0.047537,-0.086952,0.060720
1980-01-06T00:04:15.690500892Z,-0.150835,0.244209,9.730933,-0.084156,-0.087218,0.054328
1980-01-06T00:04:15.710421569Z,-0.225055,0.251391,9.836278,-0.111453,-0.061918,0.030893
1980-01-06T00:04:15.730274277Z,-0.083797,0.319626,9.807548,-0.121573,-0.049402,0.018109
1980-01-06T00:04:15.750156933Z,-0.113725,0.296881,9.582493,-0.065780,-0.092012,-0.001065
1980-01-06T00:04:15.789883496Z,-0.086191,0.107739,9.616012,-0.088417,-0.264585,-0.043676
1980-01-06T00:04:15.809757141Z,-0.363919,0.147243,9.702203,-0.104263,-0.308127,-0.003196
1980-01-06T00:04:15.829617141Z,-0.172383,0.064643,9.726145,-0.116646,-0.335957,0.014914
1980-01-06T00:04:15.849499954Z,-0.120907,0.143652,9.735722,-0.113051,-0.356197,0.033023
1980-01-06T00:04:15.869333964Z,0.193930,0.118513,9.922470,-0.119576,-0.294679,0.052198
1980-01-06T00:04:15.889191256Z,0.324414,0.023942,9.927258,-0.097871,-0.211721,0.037284
1980-01-06T00:04:15.909100631Z,0.154426,-0.073023,9.692626,0.023303,-0.013049,-0.051133
1980-01-06T00:04:15.928932714Z,-0.035913,0.141258,9.735722,0.034488,-0.007590,-0.046872
1980-01-06T00:04:15.948811673Z,-0.004788,0.199916,9.730933,-0.000799,-0.011851,-0.022371
1980-01-06T00:04:15.968675996Z,-0.010774,0.161609,9.711780,0.002530,-0.021838,-0.035154
1980-01-06T00:04:15.988586725Z,-0.019154,0.162806,9.721356,-0.008788,-0.020639,-0.023436
1980-01-06T00:04:16.008432610Z,-0.008380,0.192733,9.716568,-0.027297,-0.016378,-0.019175
1980-01-06T00:04:16.028319121Z,-0.009577,0.201113,9.702203,-0.048469,-0.019974,-0.024501
1980-01-06T00:04:16.048172454Z,-0.017957,0.199916,9.739613,-0.081626,-0.025833,-0.026099
1980-01-06T00:04:16.067879433Z,0.003591,0.160412,9.736021,-0.111054,-0.023036,-0.016512
1980-01-06T00:04:16.087902193Z,-0.010774,0.130484,9.764751,-0.126234,-0.017577,-0.012251
1980-01-06T00:04:16.107790839Z,-0.069432,0.209493,9.740809,-0.139283,-0.015579,-0.002663
1980-01-06T00:04:16.127632662Z,0.002394,-0.008380,9.730933,-0.151667,-0.014514,-0.010653
1980-01-06T00:04:16.147369954Z,-0.067038,0.143652,9.687838,-0.188818,-0.010786,-0.017044
1980-01-06T00:04:16.167372402Z,0.035913,-0.025139,9.678261,-0.268446,-0.017577,-0.022371
1980-01-06T00:04:16.187289433Z,0.026336,-0.058658,9.740510,-0.251136,-0.009587,-0.023436
1980-01-06T00:04:16.226814589Z,-0.013168,-0.149638,9.697414,-0.007590,-0.012783,-0.017044
1980-01-06T00:04:16.246732193Z,0.000000,-0.074220,9.697414,-0.053130,-0.007191,-0.014914
1980-01-06T00:04:16.266714433Z,-0.003591,-0.197522,9.745298,-0.051665,-0.000666,-0.018109
1980-01-06T00:04:16.286587714Z,-0.009577,-0.067038,9.750087,-0.008256,-0.007057,-0.015979
1980-01-06T00:04:16.306483131Z,-0.005986,-0.185551,9.716568,-0.018243,-0.005326,-0.015979
1980-01-06T00:04:16.326313339Z,0.014365,-0.159214,9.716568,-0.014781,-0.005593,-0.014914
1980-01-06T00:04:16.346188912Z,0.026336,-0.164003,9.730933,0.000266,-0.004927,-0.012783
1980-01-06T00:04:16.366058756Z,0.005986,-0.146046,9.726145,-0.000133,-0.003063,-0.011718
1980-01-06T00:04:16.405795058Z,-0.003591,-0.143652,9.711780,0.012117,-0.012783,-0.012783
1980-01-06T00:04:16.425671256Z,0.005986,-0.111330,9.740510,-0.001332,-0.009055,-0.012783
1980-01-06T00:04:16.445531204Z,0.020351,-0.169988,9.721356,0.001198,-0.009587,-0.013848
1980-01-06T00:04:16.465475995Z,0.025139,-0.141258,9.706991,-0.004927,-0.008123,-0.013848
1980-01-06T00:04:16.485269068Z,0.008380,-0.137667,9.726145,-0.001731,-0.008522,-0.013848
1980-01-06T00:04:16.505138079Z,0.027533,-0.161609,9.706991,-0.003595,-0.008522,-0.013848
1980-01-06T00:04:16.525025214Z,0.003591,-0.131681,9.731233,-0.003462,-0.007324,-0.014381
1980-01-06T00:04:16.545011100Z,0.001197,-0.144849,9.739613,-0.003862,-0.007057,-0.014381
1980-01-06T00:04:16.564590475Z,0.002394,-0.137667,9.726444,-0.003995,-0.008256,-0.014381
1980-01-06T00:04:16.584632089Z,0.010774,-0.142455,9.734824,-0.001731,-0.008123,-0.015446
1980-01-06T00:04:16.604480527Z,0.008380,-0.143652,9.720459,-0.002131,-0.007856,-0.013316
1980-01-06T00:04:16.624347506Z,-0.003591,-0.142455,9.716568,-0.003995,-0.008123,-0.013848
1980-01-06T00:04:16.644379902Z,-0.011971,-0.143652,9.726145,-0.002796,-0.008256,-0.013848
1980-01-06T00:04:16.664082922Z,-0.005986,-0.137667,9.726145,-0.002264,-0.007723,-0.013848
1980-01-06T00:04:16.703748495Z,-0.001197,-0.131681,9.726145,-0.003595,-0.007324,-0.013848
1980-01-06T00:04:16.723688599Z,0.009577,-0.135272,9.726145,-0.002530,-0.007989,-0.012783
1980-01-06T00:04:16.743577506Z,0.011971,-0.148441,9.721356,-0.002929,-0.008922,-0.012783
1980-01-06T00:04:16.763431829Z,0.027533,-0.140061,9.716568,-0.003595,-0.007057,-0.013848
1980-01-06T00:04:16.783324693Z,0.003591,-0.138864,9.726145,-0.003862,-0.008123,-0.013848
1980-01-06T00:04:16.803174589Z,0.005986,-0.134075,9.726145,-0.003063,-0.007856,-0.012783
1980-01-06T00:04:16.823046308Z,-0.001197,-0.155623,9.716568,-0.002264,-0.007057,-0.013848
1980-01-06T00:04:16.842932454Z,-0.008380,-0.147243,9.721356,-0.002397,-0.007856,-0.012783
1980-01-06T00:04:16.862776620Z,0.033519,-0.143652,9.716568,-0.001198,-0.007590,-0.013848
1980-01-06T00:04:16.882645891Z,-0.007183,-0.142455,9.726145,-0.003995,-0.008256,-0.013848
1980-01-06T00:04:16.902530006Z,0.025139,-0.143652,9.716568,-0.003595,-0.008256,-0.013848
1980-01-06T00:04:16.922383495Z,0.004788,-0.134075,9.723152,-0.002131,-0.006791,-0.013316
1980-01-06T00:04:16.942273756Z,0.013168,-0.130484,9.723152,-0.003196,-0.007457,-0.014381
1980-01-06T00:04:16.962139745Z,0.001197,-0.152032,9.727941,-0.002929,-0.008522,-0.014381
1980-01-06T00:04:17.001859641Z,0.002394,-0.150835,9.718364,-0.002796,-0.008522,-0.014381
1980-01-06T00:04:17.021737662Z,0.019154,-0.117316,9.721656,-0.002796,-0.008389,-0.014381
1980-01-06T00:04:17.041750006Z,0.034716,-0.118513,9.779117,-0.004927,-0.007457,-0.014381
1980-01-06T00:04:17.061462818Z,0.013168,-0.124498,9.774328,-0.003329,-0.007191,-0.013316
1980-01-06T00:04:17.081345735Z,0.001197,-0.161609,9.716867,-0.003728,-0.007457,-0.014381
1980-01-06T00:04:17.101356204Z,-0.017957,-0.164003,9.721656,-0.002264,-0.008522,-0.014381
1980-01-06T00:04:17.121086203Z,0.005986,-0.123301,9.730933,-0.002530,-0.007856,-0.013848
1980-01-06T00:04:17.160806047Z,0.008380,-0.156820,9.702203,-0.005193,-0.008256,-0.013848
1980-01-06T00:04:17.180696256Z,-0.007183,-0.141258,9.735722,-0.002663,-0.007457,-0.013848
1980-01-06T00:04:17.200555214Z,-0.009577,-0.135272,9.726145,-0.000266,-0.007590,-0.012783
1980-01-06T00:04:17.220453443Z,-0.001197,-0.150835,9.726145,-0.002663,-0.008522,-0.013848
1980-01-06T00:04:17.240302141Z,-0.001197,-0.146046,9.726145,-0.003595,-0.008256,-0.013848
1980-01-06T00:04:17.260167141Z,0.002394,-0.137667,9.726145,-0.002397,-0.007989,-0.013848
1980-01-06T00:04:17.280037297Z,-0.005986,-0.142455,9.711780,-0.002663,-0.007856,-0.013848
1980-01-06T00:04:17.299906151Z,-0.004788,-0.134075,9.716568,-0.002131,-0.008389,-0.013848
1980-01-06T00:04:17.319779172Z,-0.002394,-0.149638,9.721356,-0.003728,-0.008123,-0.013848
1980-01-06T00:04:17.339656568Z,0.011971,-0.143652,9.721356,-0.002131,-0.007457,-0.013848
1980-01-06T00:04:17.359648599Z,0.005986,-0.146046,9.730933,-0.002264,-0.008256,-0.013848
1980-01-06T00:04:17.379774433Z,0.009577,-0.142455,9.721356,-0.002397,-0.007191,-0.013848
1980-01-06T00:04:17.399276099Z,0.034716,-0.155623,9.721356,-0.002929,-0.007590,-0.013848
1980-01-06T00:04:17.419109537Z,-0.003591,-0.150835,9.735722,-0.003063,-0.007590,-0.012783
1980-01-06T00:04:17.439005058Z,0.023942,-0.144849,9.730933,-0.002663,-0.008522,-0.013848
1980-01-06T00:04:17.458850266Z,0.008380,-0.130484,9.726145,-0.001065,-0.007457,-0.013848
1980-01-06T00:04:17.478715578Z,0.002394,-0.134075,9.716568,-0.002929,-0.007989,-0.012783
1980-01-06T00:04:17.498598703Z,0.021548,-0.142455,9.716568,-0.003862,-0.007324,-0.013848
1980-01-06T00:04:17.518709276Z,0.001197,-0.147243,9.716568,-0.001465,-0.007590,-0.012783
1980-01-06T00:04:17.538336516Z,0.000000,-0.148441,9.697714,-0.002530,-0.007723,-0.014381
1980-01-06T00:04:17.558186932Z,0.002394,-0.144849,9.731233,-0.002929,-0.008389,-0.014381
1980-01-06T00:04:17.578083599Z,0.034716,-0.134075,9.736021,-0.001997,-0.008922,-0.013316
1980-01-06T00:04:17.597932401Z,0.023942,-0.146046,9.731233,-0.002397,-0.007590,-0.013316
1980-01-06T00:04:17.617805214Z,-0.022745,-0.184354,9.688736,-0.005060,-0.007856,-0.014381
1980-01-06T00:04:17.637682037Z,0.038307,-0.144849,9.669582,-0.001198,-0.007590,-0.013316
1980-01-06T00:04:17.657540266Z,0.002394,-0.165200,9.680057,-0.000000,-0.007191,-0.014381
1980-01-06T00:04:17.677425526Z,-0.003591,-0.158017,9.718364,-0.004527,-0.008522,-0.014381
