timestamp,accel_x,accel_y,accel_z,gyro_x,gyro_y,gyro_z
1980-01-06T00:29:18.826748808Z,-0.020351,-0.238223,9.690532,-0.003462,-0.007590,-0.014381
1980-01-06T00:29:18.846736881Z,0.001197,-0.201113,9.690532,-0.003329,-0.007723,-0.014381
1980-01-06T00:29:18.866608235Z,0.000000,-0.142455,9.786300,-0.004927,-0.008788,-0.014381
1980-01-06T00:29:18.886436829Z,0.002394,-0.191536,9.685743,-0.003063,-0.007856,-0.014381
1980-01-06T00:29:18.906343443Z,-0.029928,-0.199916,9.714474,-0.001332,-0.007723,-0.014381
1980-01-06T00:29:18.926225839Z,-0.041899,-0.214281,9.738416,-0.001731,-0.009055,-0.014381
1980-01-06T00:29:18.965741881Z,-0.016759,-0.177171,9.709685,-0.001864,-0.007590,-0.014381
1980-01-06T00:29:18.985593079Z,0.008380,-0.185551,9.719262,-0.002929,-0.009321,-0.014381
1980-01-06T00:29:19.005672037Z,-0.022745,-0.211887,9.719262,-0.002663,-0.008256,-0.014381
1980-01-06T00:29:19.025375370Z,-0.029928,-0.233435,9.719262,-0.003063,-0.008655,-0.014381
1980-01-06T00:29:19.045230787Z,-0.049081,-0.221464,9.695320,-0.000666,-0.007590,-0.014381
1980-01-06T00:29:19.065070318Z,-0.014365,-0.204704,9.704897,-0.001598,-0.008922,-0.014381
1980-01-06T00:29:19.144588391Z,-0.019154,-0.201113,9.704897,-0.002530,-0.008522,-0.015446
1980-01-06T00:29:19.164462818Z,-0.034716,-0.207098,9.700109,-0.001598,-0.007723,-0.014381
1980-01-06T00:29:19.184301516Z,-0.011971,-0.202310,9.714474,-0.002397,-0.008123,-0.014381
1980-01-06T00:29:19.204154328Z,-0.011971,-0.198719,9.719262,-0.003063,-0.008788,-0.013316
1980-01-06T00:29:19.224090214Z,-0.015562,-0.209493,9.704897,-0.002663,-0.007590,-0.014381
1980-01-06T00:29:19.244017714Z,-0.026336,-0.208296,9.709685,-0.001731,-0.009188,-0.014381
1980-01-06T00:29:19.263755162Z,-0.037110,-0.201113,9.714474,-0.001997,-0.008256,-0.014381
1980-01-06T00:29:19.283659849Z,-0.041899,-0.216675,9.700109,-0.001997,-0.009188,-0.015446
1980-01-06T00:29:19.303516203Z,-0.019154,-0.202310,9.719262,-0.001332,-0.007457,-0.015446
1980-01-06T00:29:19.323416880Z,-0.035913,-0.311246,9.642648,-0.076965,-0.003462,-0.015446
1980-01-06T00:29:19.343303183Z,0.134075,0.298078,9.791088,-0.049402,0.009987,-0.015446
1980-01-06T00:29:19.363157401Z,0.050278,0.265756,9.949105,0.030493,-0.001731,-0.012251
1980-01-06T00:29:19.383034797Z,0.059855,-0.372298,9.843760,0.039548,-0.002264,0.007989
1980-01-06T00:29:19.442624172Z,-0.134075,0.035913,9.757569,-0.004794,-0.011585,-0.005859
1980-01-06T00:29:19.462487870Z,-0.016759,-0.187945,9.709685,-0.008389,-0.004661,-0.028229
1980-01-06T00:29:19.482365787Z,0.272939,-0.341174,9.690532,-0.034621,0.004128,-0.050600
1980-01-06T00:29:19.502236203Z,0.362722,-0.393846,9.771935,-0.013049,0.011452,-0.001598
1980-01-06T00:29:19.522112141Z,0.981623,-0.861913,9.867702,0.007324,0.047271,0.046339
1980-01-06T00:29:19.542023599Z,0.973243,-1.194707,9.996989,-0.017843,0.171507,-0.105994
1980-01-06T00:29:19.581697922Z,0.392649,-0.845153,10.408792,0.095208,0.975382,-0.574710
1980-01-06T00:29:19.601577870Z,0.533907,-1.215057,10.351331,0.025433,1.282311,-0.692954
1980-01-06T00:29:19.621495839Z,1.011550,-1.370680,10.787076,-0.375106,1.534379,-0.980575
1980-01-06T00:29:19.641322297Z,1.300052,-1.347936,10.600328,-0.544350,1.247024,-1.141430
1980-01-06T00:29:19.661179537Z,1.199495,-0.885855,10.825383,-0.594550,0.586294,-1.117994
1980-01-06T00:29:19.681057141Z,0.870292,-0.995988,10.820595,-0.651142,0.023436,-0.999750
1980-01-06T00:29:19.740673859Z,0.011971,-1.441309,10.748769,0.085887,0.153797,-1.123320
1980-01-06T00:29:19.760734797Z,0.063446,-1.211466,10.887632,0.192680,0.414254,-1.201085
1980-01-06T00:29:19.780405839Z,-0.003591,-1.069011,11.184513,0.301736,0.374307,-1.210672
1980-01-06T00:29:19.800275734Z,-0.158017,-1.037886,11.150994,0.298407,0.274172,-1.204280
1980-01-06T00:29:19.820386724Z,-0.502782,-0.860716,11.438298,0.355798,0.249937,-1.229847
1980-01-06T00:29:19.840052766Z,-0.780510,-0.787692,11.648989,0.394414,0.249937,-1.234108
1980-01-06T00:29:19.879764432Z,-1.473631,-0.884658,12.496535,0.561128,0.012384,-1.180845
1980-01-06T00:29:19.899627193Z,-2.015918,-0.719458,12.664130,0.730371,-0.027963,-1.143560
1980-01-06T00:29:19.919507766Z,-2.522291,-0.735020,11.826159,0.963131,0.084156,-1.070057
1980-01-06T00:29:19.939407505Z,-2.740164,-0.817620,12.850878,0.972319,0.260990,-1.066861
1980-01-06T00:29:19.959228026Z,-3.046622,-0.177171,11.917139,0.944489,0.170309,-0.916659
1980-01-06T00:29:19.979129953Z,-3.393781,0.116119,12.051214,1.083906,0.028096,-0.808002
1980-01-06T00:29:19.999018911Z,-3.778050,0.544681,12.223597,1.257544,0.071506,-0.729173
1980-01-06T00:29:20.038721359Z,-4.167108,0.525527,11.735180,1.397493,0.140748,-0.485228
1980-01-06T00:29:20.058604276Z,-4.458004,0.905008,11.433510,1.512941,0.077764,-0.385093
1980-01-06T00:29:20.078448391Z,-4.704607,1.231817,11.251551,1.567802,-0.041812,-0.197606
1980-01-06T00:29:20.098313338Z,-5.121197,1.235408,11.036073,1.525591,0.126766,-0.084688
1980-01-06T00:29:20.118213286Z,-5.354632,1.811214,9.987412,1.604154,0.262188,0.099602
1980-01-06T00:29:20.138085474Z,-5.592855,1.946486,10.748769,1.475789,0.414920,0.281762
1980-01-06T00:29:20.217591463Z,-5.816713,2.493561,8.617630,1.779123,-0.172839,0.866592
1980-01-06T00:29:20.237613234Z,-5.659893,2.270900,6.458060,1.610279,-0.006791,0.893223
1980-01-06T00:29:20.257286411Z,-5.722142,3.398569,7.319973,1.360475,0.002397,1.122255
1980-01-06T00:29:20.277141984Z,-5.738902,3.493140,6.381445,1.337572,0.047271,1.305480
1980-01-06T00:29:20.336789328Z,-4.110844,3.190274,4.681562,1.107075,0.165915,1.747565
1980-01-06T00:29:20.356632401Z,-3.391387,3.421314,4.988020,0.986967,0.143544,1.898832
1980-01-06T00:29:20.376487922Z,-2.924517,3.217807,4.303278,0.789227,0.255930,1.951030
1980-01-06T00:29:20.396384328Z,-2.116474,3.415329,4.288913,0.561660,0.297209,2.072470
1980-01-06T00:29:20.416275682Z,-1.412579,3.634398,4.236241,0.545015,0.324905,2.135321
1980-01-06T00:29:20.436149276Z,-0.673968,3.743334,3.800496,0.575109,0.368182,2.103363
1980-01-06T00:29:20.495702870Z,0.780510,2.652776,3.182792,-0.038616,0.200669,1.997902
1980-01-06T00:29:20.515619484Z,1.158794,2.639607,3.503615,-0.345811,0.268846,1.989380
1980-01-06T00:29:20.535527297Z,1.289278,2.855086,3.656844,-0.471912,0.438223,1.915877
1980-01-06T00:29:20.555360734Z,1.607706,2.710236,3.675997,-0.455933,0.555801,1.904159
1980-01-06T00:29:20.575212297Z,1.965640,2.187103,3.762189,-0.515854,0.721183,1.853026
1980-01-06T00:29:20.595294901Z,2.166753,2.243367,3.661932,-0.600675,0.894022,1.778457
1980-01-06T00:29:20.615133963Z,2.285265,2.092532,3.556587,-0.709998,0.975116,1.672996
1980-01-06T00:29:20.654696724Z,2.457648,2.067393,4.437653,-0.840493,0.901612,1.488706
1980-01-06T00:29:20.674560630Z,2.607286,1.345541,4.701015,-0.823981,1.025982,1.323590
1980-01-06T00:29:20.694459849Z,2.972401,1.312023,5.811924,-1.015596,1.092561,1.335308
1980-01-06T00:29:20.734206047Z,2.887407,0.663194,6.271611,-1.065397,1.951296,1.061535
1980-01-06T00:29:20.754043807Z,3.136404,0.033519,8.115147,-1.263269,1.819071,0.973118
1980-01-06T00:29:20.793790109Z,2.954445,1.142034,9.115923,-1.139033,1.908420,0.378701
1980-01-06T00:29:20.813655682Z,2.586935,0.678756,9.743204,-0.929309,1.693236,0.034621
1980-01-06T00:29:20.833558130Z,2.282871,0.192733,10.169372,-0.991494,1.406947,-0.162453
1980-01-06T00:29:20.853379797Z,1.247379,0.942118,10.169372,-1.016927,1.468066,-0.475640
1980-01-06T00:29:20.873258182Z,0.673968,0.994791,10.427945,-0.917192,1.342898,-0.708933
1980-01-06T00:29:20.893142505Z,0.653617,0.650026,11.917139,-0.907471,1.106942,-0.872983
1980-01-06T00:29:20.952774744Z,-0.792481,-0.148441,11.988965,-0.703607,0.898150,-1.449291
1980-01-06T00:29:20.972623599Z,-1.127669,-0.023942,12.582727,-0.895753,0.707734,-1.522794
1980-01-06T00:29:20.992458234Z,-1.410185,-0.166397,12.606669,-0.819054,0.578571,-1.639973
1980-01-06T00:29:21.012530265Z,-1.509544,-0.590171,12.740745,-0.707335,0.458995,-1.762478
1980-01-06T00:29:21.032205161Z,-1.497573,-0.849942,12.865243,-0.650610,0.308926,-1.856222
1980-01-06T00:29:21.052117296Z,-1.663970,-0.973243,12.644977,-0.566188,0.222107,-1.959552
1980-01-06T00:29:21.111699484Z,-2.449268,-0.987608,12.783840,-0.360059,-0.074702,-1.943573
1980-01-06T00:29:21.131602765Z,-2.687491,-1.389834,13.219584,-0.298007,-0.087352,-1.978727
1980-01-06T00:29:21.151453859Z,-2.735375,-1.089362,14.000094,-0.396944,-0.215316,-1.987249
1980-01-06T00:29:21.171327296Z,-2.861071,-0.707487,14.641741,-0.307595,-0.343414,-2.051165
1980-01-06T00:29:21.191192088Z,-3.371036,-0.535104,15.077485,-0.089748,-0.474042,-2.152365
1980-01-06T00:29:21.211081880Z,-4.076128,-0.389058,15.154099,0.175902,-0.591354,-2.136386
1980-01-06T00:29:21.250796255Z,-5.600038,-0.509965,14.866796,0.627440,-0.560329,-2.005359
1980-01-06T00:29:21.270667244Z,-5.875371,-0.214281,14.584280,0.745818,-0.618119,-1.861548
1980-01-06T00:29:21.290523026Z,-6.276400,0.226252,14.459781,0.962732,-0.697881,-1.691106
1980-01-06T00:29:21.310392817Z,-6.721721,0.189142,13.703214,1.381647,-0.771517,-1.485510
1980-01-06T00:29:21.330314536Z,-6.843825,0.556652,13.923480,1.277517,-0.636894,-1.295893
1980-01-06T00:29:21.350128442Z,-6.789956,0.948104,13.741521,1.536376,-0.559530,-1.121190
1980-01-06T00:29:21.370031359Z,-6.509834,1.431733,13.564350,1.742105,-0.582033,-0.888962
1980-01-06T00:29:21.409752765Z,-6.397307,1.951274,11.548432,1.745834,-0.547945,-0.483097
1980-01-06T00:29:21.429629900Z,-6.121974,2.545036,11.289858,1.891908,-0.602140,-0.238086
1980-01-06T00:29:21.449492713Z,-6.053739,2.718616,9.609129,1.816940,-0.450740,-0.059122
1980-01-06T00:29:21.469355630Z,-5.966351,2.737770,8.598776,1.910950,-0.365385,0.136886
1980-01-06T00:29:21.489243390Z,-5.673061,3.026271,7.885303,1.908420,-0.326237,0.410659
1980-01-06T00:29:21.509095525Z,-5.449203,3.250129,7.818265,1.689774,-0.180163,0.702541
1980-01-06T00:29:21.568686515Z,-4.374207,3.271677,6.386533,1.688310,0.686829,1.371527
1980-01-06T00:29:21.588576411Z,-3.751714,2.621651,6.774394,1.423192,0.655537,1.478053
1980-01-06T00:29:21.608457296Z,-3.774459,2.630031,6.199785,1.212403,0.392283,1.484445
1980-01-06T00:29:21.628323025Z,-3.568558,3.095703,6.396110,1.104146,0.072971,1.581384
1980-01-06T00:29:21.648180577Z,-3.469198,3.312378,6.161478,1.136370,-0.072038,1.627190
1980-01-06T00:29:21.668062505Z,-3.332729,2.908955,5.347449,1.118660,0.077764,1.632516
1980-01-06T00:29:21.707787244Z,-2.268506,3.111265,4.273949,0.796950,0.355665,1.832253
1980-01-06T00:29:21.727672869Z,-1.572991,3.186682,4.293103,0.664059,0.415719,1.918540
1980-01-06T00:29:21.747548807Z,-1.168370,3.427300,3.938761,0.594950,0.406797,1.971803
1980-01-06T00:29:21.767444692Z,-0.557849,3.217807,3.646668,0.522245,0.380832,1.964346
1980-01-06T00:29:21.787265942Z,0.135272,2.910152,3.589208,0.362589,0.258859,1.950498
1980-01-06T00:29:21.807174484Z,0.463278,2.620454,3.469497,0.191614,0.169244,1.921735
1980-01-06T00:29:21.827035629Z,0.612916,2.609680,3.670610,0.014381,0.144343,1.937714
1980-01-06T00:29:21.866757869Z,1.526304,2.693477,4.024952,-0.208525,0.493883,1.923866
1980-01-06T00:29:21.886645213Z,2.031480,2.249352,4.431967,-0.367116,0.823182,1.841841
1980-01-06T00:29:21.906513025Z,2.718616,2.473210,5.059247,-0.551407,1.032240,1.754489
1980-01-06T00:29:21.926410786Z,2.898181,2.461239,5.054459,-0.593085,1.062600,1.623462
1980-01-06T00:29:21.946234848Z,3.155558,2.367866,5.150227,-0.645417,1.038632,1.458346
1980-01-06T00:29:21.966123129Z,3.277662,2.480393,5.815815,-0.771384,0.890960,1.300687
1980-01-06T00:29:22.025734379Z,3.172317,1.553837,7.410354,-0.984570,0.848083,0.823449
1980-01-06T00:29:22.045581098Z,3.337517,1.790863,8.248324,-1.183241,0.914795,0.698813
1980-01-06T00:29:22.065443702Z,3.227384,2.430115,8.166922,-1.171524,1.075916,0.494282
1980-01-06T00:29:22.085320629Z,2.980781,1.902193,8.506898,-1.016927,0.987366,0.356863
1980-01-06T00:29:22.105194692Z,2.856283,1.356315,9.038411,-1.061002,0.966460,0.218379
1980-01-06T00:29:22.125160681Z,2.419341,1.357512,9.287408,-1.040629,1.055676,0.015979
1980-01-06T00:29:22.145136463Z,1.908179,1.793257,9.531616,-1.001747,1.011068,-0.121440
1980-01-06T00:29:22.184704692Z,1.535880,1.385046,9.895535,-0.922785,1.025982,-0.398409
1980-01-06T00:29:22.204553754Z,0.920571,1.364695,9.582193,-0.752875,1.108274,-0.576840
1980-01-06T00:29:22.224448546Z,0.565032,0.703895,9.859921,-0.717455,0.939696,-0.727042
1980-01-06T00:29:22.244275473Z,0.302867,0.796072,10.281301,-0.858070,0.729839,-0.777110
1980-01-06T00:29:22.264155213Z,0.032322,1.112107,10.156802,-0.783768,0.779640,-0.879375
1980-01-06T00:29:22.284009379Z,-0.308852,0.937330,9.826403,-0.616255,0.967792,-1.012533
1980-01-06T00:29:22.323767713Z,-0.126893,0.474052,11.076176,-0.707468,0.689625,-1.219194
1980-01-06T00:29:22.343673233Z,-0.110133,0.932542,13.274053,-0.839561,0.439688,-1.368331
1980-01-06T00:29:22.363484431Z,-0.962469,0.984017,12.177508,-0.283493,0.185755,-1.373657
1980-01-06T00:29:22.383364692Z,-1.004368,0.029928,12.416928,-0.568185,0.428769,-1.396028
1980-01-06T00:29:22.403223390Z,-1.006762,0.478840,12.282853,-0.386957,0.615722,-1.560078
1980-01-06T00:29:22.423151358Z,-0.954089,0.314838,12.388198,-0.278700,0.539689,-1.712411
1980-01-06T00:29:22.482695890Z,-3.192668,0.069432,12.153566,-0.272841,-0.338621,-1.663409
1980-01-06T00:29:22.502561358Z,-3.078943,0.464475,12.565369,-0.270976,-0.284425,-1.630386
1980-01-06T00:29:22.522459848Z,-2.992752,0.751779,12.278065,-0.053929,-0.205463,-1.608015
1980-01-06T00:29:22.542337973Z,-3.303998,0.656011,11.899781,0.071506,-0.144876,-1.552622
1980-01-06T00:29:22.562224171Z,-3.242946,0.782904,11.612476,0.106393,-0.190016,-1.553687
1980-01-06T00:29:22.582080265Z,-3.763685,0.910994,11.578958,0.133025,-0.505068,-1.427986
1980-01-06T00:29:22.641663442Z,-4.513070,1.150414,10.257359,0.235290,-0.423176,-1.023186
1980-01-06T00:29:22.661528285Z,-4.272453,1.152808,9.850345,0.215583,-0.376571,-0.878310
1980-01-06T00:29:22.681388910Z,-4.242526,1.035492,9.586982,0.158591,-0.374307,-0.773914
1980-01-06T00:29:22.701330994Z,-4.412514,1.152808,9.395446,0.074702,-0.428369,-0.627973
1980-01-06T00:29:22.721180994Z,-4.472369,1.112107,9.270947,0.030360,-0.393482,-0.472444
1980-01-06T00:29:22.741009640Z,-4.285621,1.278504,9.050681,0.027431,-0.266449,-0.349939
1980-01-06T00:29:22.780754327Z,-3.835511,1.204283,8.509591,0.001198,-0.153398,-0.118777
1980-01-06T00:29:22.820515942Z,-3.800795,1.333570,8.859145,-0.152865,-0.218113,0.157126
1980-01-06T00:29:22.840586150Z,-3.785233,1.438915,9.002797,-0.177100,-0.204664,0.259392
1980-01-06T00:29:22.860241567Z,-3.791218,1.453280,9.318831,-0.195210,-0.254731,0.395745
1980-01-06T00:29:22.880318598Z,-3.857059,1.401805,9.625289,-0.230896,-0.247940,0.526773
1980-01-06T00:29:22.900004848Z,-3.615245,1.527501,10.242993,-0.259259,-0.244079,0.650343
1980-01-06T00:29:22.939713494Z,-3.236961,1.679533,11.478401,-0.152066,-0.253666,0.953943
1980-01-06T00:29:22.959591098Z,-3.228581,1.592144,12.426505,-0.058589,-0.151933,1.078579
1980-01-06T00:29:22.979467869Z,-2.868254,1.525106,13.183073,0.006791,-0.082558,1.189367
1980-01-06T00:29:22.999355577Z,-2.524686,1.365892,13.628395,0.128364,-0.092145,1.284175
1980-01-06T00:29:23.019304431Z,-2.293645,1.234211,14.054563,0.212653,-0.191881,1.383245
1980-01-06T00:29:23.039075942Z,-1.910573,1.103727,14.408904,0.272974,-0.330232,1.473792
1980-01-06T00:29:23.098705212Z,-0.366313,-0.421380,15.859791,0.526506,-1.108140,1.767805
1980-01-06T00:29:23.118584014Z,0.246603,-1.174356,15.898098,0.701876,-1.178847,1.715607
1980-01-06T00:29:23.138404900Z,0.979228,-1.702277,14.839861,0.897085,-1.246092,1.584579
1980-01-06T00:29:23.158275108Z,1.770512,-1.983596,14.255675,1.004144,-1.313736,1.439704
1980-01-06T00:29:23.178151619Z,2.293645,-1.922544,12.693758,1.175518,-1.370195,1.258609
1980-01-06T00:29:23.198012764Z,2.680309,-2.124854,11.779173,1.367931,-1.348624,1.024251
1980-01-06T00:29:23.237885004Z,3.403358,-1.523909,9.964368,1.725327,-1.411075,0.559796
1980-01-06T00:29:23.257831202Z,3.758897,-1.674744,9.021052,1.878725,-1.492567,0.326503
1980-01-06T00:29:23.277490212Z,3.997120,-1.464054,8.125621,1.872467,-1.509345,0.069775
1980-01-06T00:29:23.297376879Z,4.091691,-1.077391,7.450457,1.880856,-1.566869,-0.149670
1980-01-06T00:29:23.317286671Z,3.995923,-0.812831,6.626851,1.849431,-1.472860,-0.375505
1980-01-06T00:29:23.337094535Z,4.004303,-0.417788,5.801450,1.793371,-1.291499,-0.556068
1980-01-06T00:29:23.396706931Z,4.520253,0.598550,4.738424,1.448492,-0.746350,-0.906539
1980-01-06T00:29:23.416638493Z,4.491522,0.835576,3.364153,1.157542,-0.696416,-1.119592
1980-01-06T00:29:23.436473598Z,4.630386,1.484405,2.981080,0.921852,-0.725578,-1.251685
1980-01-06T00:29:23.456359379Z,4.455609,1.853112,2.052729,0.717854,-0.812530,-1.360874
1980-01-06T00:29:23.476400473Z,4.204218,2.274492,1.803732,0.539290,-0.740358,-1.494032
1980-01-06T00:29:23.496078025Z,3.942053,2.627636,1.506851,0.268313,-0.530368,-1.630386
1980-01-06T00:29:23.516011931Z,3.743334,3.092112,1.473332,0.077498,-0.480034,-1.694302
1980-01-06T00:29:23.555704796Z,2.948459,3.652355,1.808520,-0.139017,-0.451405,-1.920138
1980-01-06T00:29:23.575577139Z,2.219425,3.118448,1.918653,-0.335425,-0.532632,-2.023468
1980-01-06T00:29:23.595426618Z,1.314417,3.254917,2.411859,-0.764327,-0.629171,-2.039447
1980-01-06T00:29:23.615335004Z,0.483629,3.739743,2.948160,-1.129179,-0.555535,-2.057556
1980-01-06T00:29:23.635171931Z,-0.287304,4.060566,3.829226,-1.277384,-0.371644,-2.051165
1980-01-06T00:29:23.655008077Z,-0.967257,4.264073,4.528333,-1.258875,-0.177100,-1.982988
1980-01-06T00:29:23.714692504Z,-2.907758,3.760094,5.587768,-1.324788,0.036752,-1.534512
1980-01-06T00:29:23.734516618Z,-3.092112,3.994725,6.076185,-1.482847,0.203199,-1.349156
1980-01-06T00:29:23.754408129Z,-3.175909,4.394557,6.794445,-1.495630,0.337422,-1.192562
1980-01-06T00:29:23.774316670Z,-3.380613,4.381389,7.345111,-1.386041,0.381098,-1.075384
1980-01-06T00:29:23.794132504Z,-3.529053,4.060566,7.852682,-1.374989,0.401604,-0.973118
1980-01-06T00:29:23.814012139Z,-3.470395,4.110844,8.068160,-1.476988,0.454868,-0.875114
1980-01-06T00:29:23.853733910Z,-4.056975,4.265270,8.479963,-1.499358,0.321710,-0.629038
1980-01-06T00:29:23.873587035Z,-4.474763,3.956418,9.825504,-1.866741,0.452471,-0.457531
1980-01-06T00:29:23.893459952Z,-4.733337,4.041412,10.342652,-1.441967,0.432896,-0.384028
1980-01-06T00:29:23.913379014Z,-5.140351,3.962404,10.629956,-1.427453,0.312655,-0.108124
1980-01-06T00:29:23.933212191Z,-4.988319,3.436877,10.759243,-1.473659,0.366850,0.090015
1980-01-06T00:29:23.953074170Z,-4.501099,3.360262,11.314698,-1.432513,0.433296,0.254065
1980-01-06T00:29:23.973165004Z,-4.589684,3.515885,12.339417,-1.483779,0.480034,0.423442
1980-01-06T00:29:24.012699743Z,-5.026627,2.640805,11.865364,-1.095623,0.312522,0.827177
1980-01-06T00:29:24.032556149Z,-4.787206,2.145205,11.448773,-1.207876,0.530768,0.951813
1980-01-06T00:29:24.052405785Z,-4.296395,2.209848,11.817480,-1.203215,0.342615,1.196824
1980-01-06T00:29:24.072296879Z,-3.815161,1.800440,12.190976,-1.354616,0.237021,1.432247
1980-01-06T00:29:24.092172087Z,-3.561375,1.752556,12.722488,-1.278982,0.202666,1.559013
1980-01-06T00:29:24.112093129Z,-3.685874,1.156399,12.636297,-1.111336,0.041945,1.684714
1980-01-06T00:29:24.151794639Z,-1.974019,0.283713,14.561235,-1.170858,0.158058,2.037317
1980-01-06T00:29:24.171626722Z,-1.838747,0.148441,14.345757,-0.769653,0.172040,2.055426
1980-01-06T00:29:24.191544431Z,-1.498770,-0.778116,14.805444,-0.585895,0.030759,2.133190
1980-01-06T00:29:24.211467035Z,-0.650026,-0.985214,15.566800,-0.511593,-0.054062,2.189649
1980-01-06T00:29:24.231321462Z,-0.117316,-1.154005,15.758336,-0.265783,-0.083623,2.150234
1980-01-06T00:29:24.251121149Z,0.433351,-1.351527,15.734394,-0.028363,-0.096273,2.116146
1980-01-06T00:29:24.271015576Z,0.530316,-1.337162,15.791855,0.186421,-0.051133,2.074601
1980-01-06T00:29:24.310775160Z,0.294487,-1.689109,15.442302,0.620117,0.146873,1.945704
1980-01-06T00:29:24.330610004Z,0.013168,-1.952471,15.078383,0.653140,0.124902,1.872201
1980-01-06T00:29:24.350687243Z,0.119710,-1.912967,14.666580,0.602806,0.011851,1.790175
1980-01-06T00:29:24.370605889Z,0.598550,-2.127248,14.101549,0.575642,-0.233160,1.714542
1980-01-06T00:29:24.390414014Z,1.472434,-1.580173,14.135068,0.601341,-0.533830,1.620798
1980-01-06T00:29:24.410106201Z,1.752556,-1.550246,13.388077,0.872051,-0.653805,1.416268
1980-01-06T00:29:24.469690733Z,2.104503,-2.018312,11.648689,1.363271,-1.139965,0.813329
1980-01-06T00:29:24.489572816Z,2.280477,-1.763330,10.843638,1.409344,-1.319728,0.608265
1980-01-06T00:29:24.509467035Z,2.339135,-1.313220,10.091860,1.502687,-1.468199,0.397343
1980-01-06T00:29:24.529298858Z,2.414552,-0.934936,9.273043,1.592968,-1.563674,0.227966
1980-01-06T00:29:24.549195785Z,2.579752,-0.796072,8.329727,1.616804,-1.514672,0.045806
1980-01-06T00:29:24.569061201Z,2.707842,-0.618901,7.707234,1.553554,-1.448359,-0.101200
1980-01-06T00:29:24.628653128Z,3.525462,0.397437,7.362470,1.581251,-1.153547,-0.521979
1980-01-06T00:29:24.648526097Z,3.536236,0.198719,6.912360,1.646098,-1.136503,-0.697748
1980-01-06T00:29:24.668429326Z,3.485958,0.490811,6.285079,1.529718,-1.127315,-0.935301
1980-01-06T00:29:24.688261514Z,3.353080,1.023521,5.427955,1.380315,-1.240100,-1.047154
1980-01-06T00:29:24.708293649Z,3.156755,1.005565,4.819827,1.210006,-1.178847,-1.148354
1980-01-06T00:29:24.728203389Z,3.095703,1.572991,4.321833,0.964862,-1.048752,-1.239967
1980-01-06T00:29:24.748077660Z,2.967613,1.909376,4.087202,0.790958,-0.926912,-1.287904
1980-01-06T00:29:24.767727295Z,2.844312,2.542642,3.953126,0.676575,-0.714925,-1.405083
1980-01-06T00:29:24.787623545Z,2.570175,2.999935,3.469497,0.633832,-0.640623,-1.494565
1980-01-06T00:29:24.807500576Z,2.384625,2.861071,2.870947,0.581234,-0.626774,-1.587243
1980-01-06T00:29:24.827338805Z,2.348712,2.723404,2.372953,0.385093,-0.608532,-1.700161
1980-01-06T00:29:24.847211514Z,2.152387,3.117251,1.965939,0.118644,-0.661795,-1.774729
1980-01-06T00:29:24.867090993Z,1.965640,3.556587,1.597232,-0.194943,-0.629837,-1.817340
1980-01-06T00:29:24.926688545Z,0.031125,4.497508,2.200571,-0.623579,-0.529969,-2.037849
1980-01-06T00:29:24.946580212Z,-1.060631,4.007894,2.363376,-0.800546,-0.514522,-2.067677
1980-01-06T00:29:24.966439014Z,-1.714248,4.147954,2.832640,-1.228915,-0.484961,-1.953693
1980-01-06T00:29:24.986310993Z,-2.118869,4.592079,4.010587,-1.556483,-0.506932,-1.718270
1980-01-06T00:29:25.006180055Z,-2.262521,4.988319,5.121497,-1.602955,-0.317049,-1.564872
1980-01-06T00:29:25.026265680Z,-2.138022,5.291186,6.016928,-1.482714,-0.130362,-1.519066
1980-01-06T00:29:25.085680837Z,-2.701857,3.529053,7.265804,-1.426654,-0.024634,-1.249022
1980-01-06T00:29:25.105532191Z,-3.384204,3.877410,7.634511,-1.455416,-0.059122,-1.131842
1980-01-06T00:29:25.125476566Z,-3.786430,3.821146,8.118139,-1.472061,-0.129163,-0.935834
1980-01-06T00:29:25.145279222Z,-3.903746,3.827132,8.956110,-1.495364,0.076033,-0.776044
1980-01-06T00:29:25.165154587Z,-4.637568,4.177882,7.586627,-1.211471,0.343414,-0.672714
1980-01-06T00:29:25.224754222Z,-4.531027,3.414132,9.993098,-1.398957,0.513324,-0.158192
1980-01-06T00:29:25.244634951Z,-4.362236,3.603274,11.372159,-1.630253,0.479901,0.096406
1980-01-06T00:29:25.264493909Z,-4.243722,3.770868,11.329063,-1.559279,0.529835,0.177366
1980-01-06T00:29:25.284402816Z,-3.878607,3.722984,12.200553,-1.375522,0.405732,0.341417
1980-01-06T00:29:25.304252816Z,-3.548207,3.333926,11.870152,-1.276985,0.385625,0.435160
1980-01-06T00:29:25.324093597Z,-3.234566,3.354277,12.296321,-1.219194,0.413189,0.551274
1980-01-06T00:29:25.383726878Z,-3.471592,2.408567,12.401666,-0.963797,0.399208,0.939030
1980-01-06T00:29:25.403647191Z,-3.472790,2.212242,12.521376,-0.915594,0.337156,1.027447
1980-01-06T00:29:25.423513232Z,-3.809175,1.890222,12.176611,-0.845020,0.150335,1.173388
1980-01-06T00:29:25.443367399Z,-3.738546,1.525106,12.195765,-0.932905,0.122772,1.386441
1980-01-06T00:29:25.463168180Z,-3.470395,1.234211,12.152669,-0.799747,0.135821,1.565405
1980-01-06T00:29:25.483048857Z,-3.147178,0.587777,12.526164,-0.789760,0.182693,1.745434
1980-01-06T00:29:25.523026826Z,-1.974019,0.363919,13.953108,-0.547146,0.455666,1.959552
1980-01-06T00:29:25.542874899Z,-1.874660,-0.131681,14.077607,-0.356863,0.409061,2.007489
1980-01-06T00:29:25.562538701Z,-1.328782,-0.482432,14.680945,-0.350205,0.351404,2.105493
1980-01-06T00:29:25.582393128Z,-0.915782,-0.369904,15.341745,-0.274572,0.433695,2.083123
1980-01-06T00:29:25.602317868Z,-0.656011,-0.253785,15.581165,0.003462,0.394414,2.028794
1980-01-06T00:29:25.622143649Z,-0.572214,-0.462081,15.605107,0.219444,0.301070,2.003228
1980-01-06T00:29:25.642018441Z,-0.515950,-0.682347,16.040852,0.356863,0.121440,1.879658
1980-01-06T00:29:25.681764378Z,-0.404620,-0.715866,14.958673,0.468849,-1.109072,1.883919
1980-01-06T00:29:25.701637868Z,-0.360327,-1.106121,13.354558,0.434894,-1.104012,1.805089
1980-01-06T00:29:25.721479586Z,0.130484,-0.937330,13.005004,0.512259,-0.991627,1.690041
1980-01-06T00:29:25.741359951Z,0.664391,-1.159991,12.665028,0.499076,-1.139699,1.702824
1980-01-06T00:29:25.761237295Z,0.975637,-0.796072,13.057677,0.574443,-1.283376,1.612276
1980-01-06T00:29:25.781089690Z,1.347936,-0.593762,12.147881,0.863529,-1.393098,1.430116
1980-01-06T00:29:25.840716461Z,2.761712,-1.219846,10.074501,1.126649,-1.415336,1.033838
1980-01-06T00:29:25.860583284Z,3.235764,-0.842759,9.547777,1.175518,-1.222523,0.848482
1980-01-06T00:29:25.880421253Z,3.702633,-0.550666,9.370606,1.242763,-1.139299,0.645017
1980-01-06T00:29:25.900338753Z,4.279635,-0.359130,9.265262,1.323989,-1.135704,0.451139
1980-01-06T00:29:25.920184899Z,4.637568,-0.344765,8.915708,1.431847,-1.116929,0.194411
1980-01-06T00:29:25.940051618Z,4.890157,-0.073023,8.436868,1.427320,-1.183241,-0.052731
1980-01-06T00:29:25.960010055Z,4.847061,0.221464,7.867047,1.432247,-1.312005,-0.248739
1980-01-06T00:29:25.999862295Z,4.015076,0.962469,7.287651,1.352751,-1.118127,-0.663127
1980-01-06T00:29:26.019652555Z,3.333926,1.450886,7.306804,1.288037,-1.172056,-0.780306
1980-01-06T00:29:26.039391097Z,3.022680,1.568202,7.311593,1.171790,-1.261006,-0.861266
1980-01-06T00:29:26.059289795Z,3.074155,1.778892,7.019500,1.077780,-1.355148,-0.962466
1980-01-06T00:29:26.079166826Z,3.191471,1.699883,6.459257,1.007207,-1.406947,-1.009337
1980-01-06T00:29:26.099081045Z,3.640384,1.600524,5.836764,0.903610,-1.119991,-1.083906
1980-01-06T00:29:26.138754795Z,4.055778,1.886631,4.050690,0.717588,-0.740624,-1.185106
1980-01-06T00:29:26.158660367Z,4.406528,1.734599,3.298911,0.520914,-0.682035,-1.347026
1980-01-06T00:29:26.178472815Z,4.521450,2.437297,2.571073,0.352602,-0.711995,-1.597363
1980-01-06T00:29:26.198384430Z,4.386178,2.740164,2.188001,0.158591,-0.918657,-1.694302
1980-01-06T00:29:26.218235732Z,3.950433,2.819172,2.039561,-0.029561,-0.889096,-1.821068
1980-01-06T00:29:26.238074742Z,3.575740,3.296816,1.685219,-0.133158,-0.688027,-2.010685
1980-01-06T00:29:26.297743440Z,1.924938,4.467580,1.790564,-0.790958,-0.393748,-2.134255
1980-01-06T00:29:26.317609951Z,1.222240,4.660314,2.508824,-0.954476,-0.350472,-2.077796
1980-01-06T00:29:26.337450472Z,0.501585,4.714183,3.260603,-1.134905,-0.322109,-2.067144
1980-01-06T00:29:26.357366201Z,-0.269348,4.815937,3.964499,-1.243562,-0.304532,-1.991510
1980-01-06T00:29:26.377193909Z,-1.148020,4.452018,4.486435,-1.326386,-0.208126,-1.896702
1980-01-06T00:29:26.397060315Z,-1.576582,4.492720,5.353136,-1.412007,-0.086553,-1.761413
1980-01-06T00:29:26.456708336Z,-2.166753,3.770868,6.559813,-1.431847,0.186421,-1.418398
1980-01-06T00:29:26.476533180Z,-2.811990,3.716998,7.397784,-1.468066,0.063649,-1.260739
1980-01-06T00:29:26.496433284Z,-3.268085,3.957615,7.641993,-1.507481,0.069242,-1.105211
1980-01-06T00:29:26.516294794Z,-3.561375,4.147954,8.111256,-1.429184,0.241682,-0.988032
1980-01-06T00:29:26.536141774Z,-3.828329,4.229357,8.590096,-1.306146,0.389886,-0.930508
1980-01-06T00:29:26.556023649Z,-4.132392,4.352659,8.930073,-1.220393,0.348874,-0.752609
1980-01-06T00:29:26.595788492Z,-4.297592,4.124012,9.844658,-1.201884,0.485094,-0.412790
1980-01-06T00:29:26.615663336Z,-4.094085,4.689044,10.821492,-1.167795,0.568318,-0.311590
1980-01-06T00:29:26.635528336Z,-4.052186,4.797980,10.562919,-0.922785,0.356730,-0.166714
1980-01-06T00:29:26.655370471Z,-4.036624,4.265270,10.189424,-1.181644,0.223306,0.045274
1980-01-06T00:29:26.675230628Z,-4.094085,3.894169,9.863811,-1.072854,0.066712,0.175236
1980-01-06T00:29:26.695136565Z,-4.022259,3.372233,10.199000,-1.194826,0.191215,0.405333
1980-01-06T00:29:26.754505055Z,-2.997540,3.276465,11.386524,-1.101616,0.343281,0.835699
1980-01-06T00:29:26.774579326Z,-2.966416,3.444059,11.013028,-0.922252,0.200536,0.934769
1980-01-06T00:29:26.794458805Z,-3.406949,2.857480,10.151116,-0.812397,0.092678,1.053013
1980-01-06T00:29:26.814304378Z,-3.014300,1.744176,10.567707,-0.835433,0.121840,1.271392
1980-01-06T00:29:26.834196461Z,-2.316390,1.745373,11.420043,-1.090564,0.511726,1.427986
1980-01-06T00:29:26.854036148Z,-1.731008,2.400187,12.248437,-1.005342,0.635829,1.472727
1980-01-06T00:29:26.913663180Z,-0.994791,1.235408,12.679393,-0.501606,0.619850,1.497228
1980-01-06T00:29:26.933534534Z,-1.041478,1.101333,12.444761,-0.441552,0.533298,1.543034
1980-01-06T00:29:26.953411721Z,-1.057040,0.671574,12.444761,-0.402004,0.513990,1.574992
1980-01-06T00:29:26.973260888Z,-1.049857,0.831985,12.511799,-0.391085,0.543950,1.586710
1980-01-06T00:29:26.993407555Z,-0.946907,0.691924,12.799103,-0.300271,0.440620,1.605885
1980-01-06T00:29:27.013210628Z,-0.666785,0.287304,13.210906,-0.277901,0.378967,1.645300
1980-01-06T00:29:27.052753128Z,-0.414197,0.591368,13.790302,-0.038483,0.428103,1.593102
1980-01-06T00:29:27.072629430Z,-0.687136,0.326809,13.929166,0.066845,0.202533,1.615472
1980-01-06T00:29:27.092554950Z,-0.676362,0.333991,13.967473,0.150202,0.078963,1.631451
1980-01-06T00:29:27.112391096Z,-0.445322,0.398635,13.790302,0.297741,0.018642,1.587775
1980-01-06T00:29:27.132238700Z,-0.390255,0.374693,13.186964,0.411325,-0.125035,1.556883
1980-01-06T00:29:27.152120888Z,-0.251391,0.161609,12.645874,0.410659,-0.273773,1.531316
1980-01-06T00:29:27.172002190Z,0.028730,0.310049,12.660239,0.343547,-0.319180,1.569666
1980-01-06T00:29:27.211742034Z,0.466869,0.824802,12.588413,0.592819,-0.222374,1.457813
1980-01-06T00:29:27.231590523Z,0.617704,0.627281,12.099997,0.691356,-0.296676,1.383245
1980-01-06T00:29:27.251486200Z,0.755371,0.653617,11.587637,0.751277,-0.437424,1.302285
1980-01-06T00:29:27.271303596Z,0.796072,0.581791,11.223719,0.798548,-0.610795,1.175518
1980-01-06T00:29:27.291229950Z,0.870292,0.685939,10.821492,0.688160,-0.779373,1.088167
1980-01-06T00:29:27.311084273Z,0.995988,0.763750,10.720936,0.734632,-0.929842,0.981640
1980-01-06T00:29:27.370750888Z,1.654393,0.706290,9.792884,0.889628,-1.211071,0.584297
1980-01-06T00:29:27.390569013Z,2.002750,0.869095,9.558251,0.825180,-1.353284,0.507598
1980-01-06T00:29:27.410453961Z,2.322376,1.057040,9.496002,0.741024,-1.361140,0.425573
1980-01-06T00:29:27.430274898Z,2.523489,1.553837,9.615712,0.780172,-1.260340,0.323307
1980-01-06T00:29:27.450171409Z,2.578555,1.587356,9.443330,0.857803,-1.194027,0.234891
1980-01-06T00:29:27.470044950Z,2.661155,1.403002,9.385869,0.897751,-1.096156,0.124103
1980-01-06T00:29:27.529629169Z,2.874239,1.602918,8.595782,0.840892,-1.190565,-0.247674
1980-01-06T00:29:27.549520523Z,3.001132,1.777695,8.356362,0.828376,-1.239967,-0.375505
1980-01-06T00:29:27.569372138Z,3.189077,1.887828,7.992444,0.862863,-1.250220,-0.488423
1980-01-06T00:29:27.589278856Z,3.423708,2.054225,7.393893,0.869388,-1.182842,-0.584297
1980-01-06T00:29:27.609109013Z,3.576937,2.293645,6.551135,0.910534,-1.012000,-0.716390
1980-01-06T00:29:27.668725731Z,4.410120,2.600103,4.233547,0.813462,-0.224371,-1.007207
1980-01-06T00:29:27.688635888Z,4.371812,2.472013,3.989339,0.741024,-0.175902,-1.133973
1980-01-06T00:29:27.708464013Z,3.818752,2.215834,3.318962,0.435959,-0.231162,-1.229847
1980-01-06T00:29:27.728316721Z,3.324349,2.469619,3.443461,0.222640,-0.281363,-1.410941
1980-01-06T00:29:27.748198961Z,2.889802,2.779668,3.419518,-0.009587,-0.367250,-1.471662
1980-01-06T00:29:27.768087033Z,2.531868,3.172317,3.658939,-0.113184,-0.375239,-1.485510
1980-01-06T00:29:27.827703127Z,2.031480,4.116830,4.496909,-0.318381,-0.119043,-1.670866
1980-01-06T00:29:27.847525211Z,1.711854,3.977966,4.749797,-0.302402,-0.318647,-1.737977
1980-01-06T00:29:27.867432815Z,0.621295,4.114436,4.840776,-0.284425,-0.522512,-1.791241
1980-01-06T00:29:27.887308856Z,-0.530316,4.388572,4.558261,-0.332629,-0.691090,-1.741173
1980-01-06T00:29:27.907186148Z,-1.248576,4.206613,3.978864,-0.441685,-0.594550,-1.630386
1980-01-06T00:29:27.927006200Z,-1.419762,4.198233,3.878308,-0.680304,-0.216115,-1.484445
1980-01-06T00:29:27.966760210Z,-1.716643,5.343858,4.716278,-0.928244,0.258726,-1.320394
1980-01-06T00:29:27.986619898Z,-1.885434,5.252879,5.108927,-0.986967,0.279499,-1.229847
1980-01-06T00:29:28.006481513Z,-2.043451,5.024232,5.501576,-1.115864,0.297741,-1.182975
1980-01-06T00:29:28.026361304Z,-2.234987,5.125986,6.148011,-1.331979,0.272574,-1.080710
1980-01-06T00:29:28.046238700Z,-2.085350,5.075707,7.230190,-1.441035,0.214251,-0.982706
1980-01-06T00:29:28.066095419Z,-2.025495,5.104438,7.828740,-1.455549,0.262454,-0.908137
1980-01-06T00:29:28.086035783Z,-2.170344,5.617994,8.163929,-1.399623,0.324106,-0.822916
1980-01-06T00:29:28.125725054Z,-2.726996,4.769250,8.470387,-1.154080,0.411858,-0.627973
2025-08-05T19:36:51.290136122Z,-2.694674,4.679467,9.167698,-1.338770,0.459661,-0.482564
2025-08-05T19:36:51.349742581Z,-3.325546,4.915296,10.972926,-1.083373,0.420113,-0.115048
2025-08-05T19:36:51.369625081Z,-3.259706,4.175488,10.972926,-0.860733,0.467518,-0.031958
2025-08-05T19:36:51.389487528Z,-2.919729,3.685874,11.217134,-1.046222,0.584963,0.171507
2025-08-05T19:36:51.409312737Z,-2.935291,3.713407,11.233295,-1.020389,0.652208,0.276436
2025-08-05T19:36:51.429227841Z,-2.844312,3.386598,11.621156,-0.805206,0.678972,0.354200
2025-08-05T19:36:51.449281487Z,-2.357092,2.472013,11.209353,-0.565655,0.719719,0.401072
2025-08-05T19:36:51.508644039Z,-0.538695,2.122460,9.811139,-0.139550,0.602140,0.146474
2025-08-05T19:36:51.528555758Z,-0.530316,1.950077,9.375395,-0.360725,0.382962,0.189084
2025-08-05T19:36:51.548428883Z,-0.948104,2.193089,10.404902,-0.617853,0.164850,0.272175
2025-08-05T19:36:51.568297789Z,-1.079785,2.409764,11.491869,-0.649411,0.104928,0.360592
2025-08-05T19:36:51.588151226Z,-1.063026,2.280477,11.937190,-0.516786,0.201734,0.346743
2025-08-05T19:36:51.608012424Z,-0.848745,2.012326,12.009016,-0.483896,0.255397,0.349939
2025-08-05T19:36:51.647773987Z,-0.677559,1.796848,11.898883,-0.589757,0.103730,0.338221
2025-08-05T19:36:51.667627580Z,-0.873884,1.742979,11.659463,-0.512525,0.008922,0.340352
2025-08-05T19:36:51.687530028Z,-0.826000,1.507150,11.343429,-0.447544,-0.045673,0.338221
2025-08-05T19:36:51.707405705Z,-0.736217,1.528698,11.218930,-0.294146,-0.109855,0.275371
2025-08-05T19:36:51.727229716Z,-0.910994,1.371878,10.601226,-0.142080,-0.237554,0.257261
2025-08-05T19:36:51.747098257Z,-1.021127,1.096544,9.902119,-0.029295,-0.209724,0.183758
2025-08-05T19:36:51.806708726Z,-1.022324,1.531092,9.260473,-0.084955,-0.207460,0.074036
2025-08-05T19:36:51.826599039Z,-1.085770,1.468843,9.112032,-0.040480,-0.351670,0.128364
2025-08-05T19:36:51.846459612Z,-1.015141,1.097741,8.949226,-0.035287,-0.379367,0.113451
2025-08-05T19:36:51.866324872Z,-0.767342,1.085770,8.819940,0.006658,-0.294279,-0.047404
2025-08-05T19:36:51.886167320Z,-0.946907,1.149217,8.614038,0.041013,-0.341417,-0.064448
2025-08-05T19:36:51.906078674Z,-1.503559,0.934936,8.503905,0.014914,-0.317315,-0.034621
2025-08-05T19:36:51.945649143Z,-1.790863,0.828394,7.608474,-0.209191,0.134356,-0.275371
2025-08-05T19:36:51.965877789Z,-0.818817,1.394622,9.442432,-0.518783,0.015047,-0.119842
2025-08-05T19:36:51.985517893Z,-1.321599,1.412579,8.824728,-0.649811,-0.113051,0.051665
2025-08-05T19:36:52.005406278Z,-1.029507,1.374272,8.997110,-0.474442,-0.077498,0.015446
2025-08-05T19:36:52.025311539Z,-0.899023,1.067814,9.250896,-0.452338,-0.116646,0.016512
2025-08-05T19:36:52.045213570Z,-0.465672,0.615310,9.734525,-0.454734,-0.422377,0.018642
2025-08-05T19:36:52.065001695Z,-0.849942,0.380678,9.806351,-0.691889,-0.709066,0.113451
2025-08-05T19:36:52.104765862Z,-0.826000,0.366313,10.251673,-0.701077,-0.324639,0.118777
2025-08-05T19:36:52.124633726Z,-0.251391,-0.020351,10.242096,-0.611994,-0.158724,0.048469
2025-08-05T19:36:52.144493570Z,0.007183,-0.286107,10.270826,-0.658333,-0.250071,0.055926
2025-08-05T19:36:52.164431955Z,0.158017,-0.454898,9.753678,-0.823182,-0.385625,0.066579
2025-08-05T19:36:52.184417268Z,-0.946907,-8.043321,3.576638,-1.129313,-2.640522,1.946769
2025-08-05T19:36:52.204368101Z,0.556652,-3.438074,21.360767,0.140348,-0.251535,-0.744087
2025-08-05T19:36:52.224005861Z,0.849942,-0.644040,10.141540,-0.029028,-0.045007,0.000533
2025-08-05T19:36:52.263698570Z,-0.084994,-0.237026,9.590873,-0.049668,-0.007191,-0.014381
2025-08-05T19:36:52.283557528Z,-0.021548,-0.128090,9.921272,-0.047671,-0.028096,-0.018642
2025-08-05T19:36:52.303484351Z,-0.032322,-0.259771,9.983521,-0.050334,-0.041945,-0.017577
2025-08-05T19:36:52.323372893Z,-0.094571,-0.658405,9.519047,-0.017577,-0.022903,-0.017577
2025-08-05T19:36:52.343173986Z,0.111330,0.791284,10.261250,0.019974,0.004261,-0.000533
2025-08-05T19:36:52.363066955Z,0.094571,0.080206,9.911695,0.032624,0.005060,-0.017577
2025-08-05T19:36:52.422686226Z,-0.038307,-0.265756,9.820716,0.004128,-0.007057,-0.014381
2025-08-05T19:36:52.442770288Z,-0.014365,-0.254982,9.710583,-0.001864,-0.008788,-0.014381
2025-08-05T19:36:52.462417632Z,-0.027533,-0.229843,9.729736,-0.000266,-0.007590,-0.014381
2025-08-05T19:36:52.482256851Z,0.002394,-0.203507,9.787197,0.000932,-0.009321,-0.014381
2025-08-05T19:36:52.502209455Z,-0.004788,-0.177171,9.782409,0.000666,-0.007989,-0.013316
2025-08-05T19:36:52.522082997Z,-0.041899,-0.122104,9.811139,-0.010919,-0.007457,-0.015446
2025-08-05T19:36:52.561769820Z,-0.002394,-0.220267,9.801562,-0.001465,-0.007989,-0.014381
2025-08-05T19:36:52.581656851Z,-0.033519,-0.243011,9.729736,-0.000932,-0.007856,-0.014381
2025-08-05T19:36:52.601518101Z,-0.035913,-0.238223,9.729736,-0.002530,-0.007590,-0.014381
2025-08-05T19:36:52.621394820Z,-0.009577,-0.181959,9.772832,-0.001065,-0.006924,-0.015446
2025-08-05T19:36:52.641247893Z,-0.009577,-0.191536,9.739313,-0.003329,-0.007989,-0.014381
2025-08-05T19:36:52.661116434Z,-0.032322,-0.190339,9.763255,-0.003862,-0.009321,-0.014381
2025-08-05T19:36:52.681025393Z,-0.010774,-0.198719,9.763255,-0.003862,-0.007856,-0.014381
2025-08-05T19:36:52.720742684Z,-0.014365,-0.203507,9.739313,-0.003862,-0.008389,-0.014381
2025-08-05T19:36:52.740616643Z,-0.017957,-0.207098,9.758467,-0.004394,-0.008522,-0.015446
2025-08-05T19:36:52.760684299Z,-0.004788,-0.199916,9.753678,-0.003995,-0.009055,-0.015446
2025-08-05T19:36:52.780312580Z,-0.007183,-0.204704,9.744102,-0.002131,-0.008256,-0.015446
2025-08-05T19:36:52.800192059Z,-0.023942,-0.204704,9.753678,-0.003196,-0.007989,-0.014381
2025-08-05T19:36:52.820102684Z,-0.019154,-0.198719,9.763255,-0.003728,-0.007723,-0.014381
2025-08-05T19:36:52.879702267Z,-0.016759,-0.198719,9.753678,-0.002397,-0.009454,-0.015446
2025-08-05T19:36:52.899609247Z,0.002394,-0.193930,9.777620,-0.003063,-0.008788,-0.013316
2025-08-05T19:36:52.919638465Z,-0.003591,-0.189142,9.763255,-0.003196,-0.007856,-0.014381
2025-08-05T19:36:52.939284038Z,-0.025139,-0.234632,9.738416,-0.004128,-0.008922,-0.013848
2025-08-05T19:36:52.959182007Z,-0.047884,-0.250194,9.743204,-0.001598,-0.007989,-0.013848
2025-08-05T19:36:52.979020028Z,-0.039504,-0.239420,9.747993,-0.001465,-0.007723,-0.013848
2025-08-05T19:36:53.038630653Z,-0.009577,-0.193930,9.752781,-0.000799,-0.008256,-0.013848
2025-08-05T19:36:53.058490965Z,-0.011971,-0.220267,9.733627,-0.001731,-0.009321,-0.013848
2025-08-05T19:36:53.078414559Z,-0.008380,-0.223858,9.738416,-0.001465,-0.007856,-0.013848
2025-08-05T19:36:53.098234976Z,-0.008380,-0.202310,9.757569,-0.002530,-0.008256,-0.013848
2025-08-05T19:36:53.118096694Z,-0.057461,-0.243011,9.623494,0.000133,-0.009321,-0.013848
