timestamp,accel_x,accel_y,accel_z,gyro_x,gyro_y,gyro_z
1980-01-06T00:11:47.087560251Z,-0.034716,-0.220267,9.630377,0.011185,-0.001198,-0.014381
1980-01-06T00:11:47.107392490Z,-0.135272,-0.361524,9.673472,-0.009055,-0.000666,-0.015446
1980-01-06T00:11:47.127195042Z,-0.159214,-0.160412,9.675568,-0.012916,-0.006125,-0.014381
1980-01-06T00:11:47.147128323Z,-0.064643,-0.123301,9.618107,-0.002397,-0.007191,-0.014381
1980-01-06T00:11:47.167016501Z,-0.082600,-0.210690,9.680356,0.007989,-0.006125,-0.015446
1980-01-06T00:11:47.186890094Z,-0.098162,-0.237026,9.683049,0.001332,-0.007989,-0.014381
1980-01-06T00:11:47.206791136Z,-0.021548,-0.187945,9.745298,-0.006258,-0.009055,-0.014381
1980-01-06T00:11:47.226666605Z,-0.062249,-0.159214,9.716568,-0.004661,-0.007324,-0.015446
1980-01-06T00:11:47.246466188Z,-0.135272,-0.112527,9.745298,-0.003595,-0.006791,-0.013316
1980-01-06T00:11:47.266381396Z,-0.086191,-0.146046,9.721356,-0.001731,-0.007856,-0.014381
1980-01-06T00:11:47.286233167Z,-0.055067,-0.180762,9.714772,-0.001598,-0.007057,-0.014381
1980-01-06T00:11:47.306025094Z,-0.089783,-0.196325,9.714772,-0.001731,-0.007457,-0.014381
1980-01-06T00:11:47.325885042Z,-0.076614,-0.162806,9.709984,-0.002397,-0.007856,-0.014381
1980-01-06T00:11:47.345758948Z,-0.063446,-0.159214,9.714772,-0.001598,-0.007057,-0.014381
1980-01-06T00:11:47.365621917Z,-0.076614,-0.173580,9.714772,-0.002397,-0.007457,-0.014381
1980-01-06T00:11:47.385521084Z,-0.095768,-0.191536,9.695619,-0.001332,-0.007191,-0.014381
1980-01-06T00:11:47.405350719Z,-0.053870,-0.172383,9.714772,-0.001731,-0.007723,-0.014381
1980-01-06T00:11:47.425189730Z,-0.068235,-0.166397,9.719561,-0.000266,-0.006924,-0.014381
1980-01-06T00:11:47.445087178Z,-0.083797,-0.169988,9.714772,-0.002397,-0.007057,-0.014381
1980-01-06T00:11:47.484812073Z,-0.080206,-0.175974,9.705195,-0.002397,-0.006791,-0.014381
1980-01-06T00:11:47.504698167Z,-0.090980,-0.161609,9.724349,-0.001465,-0.007856,-0.014381
1980-01-06T00:11:47.524545563Z,-0.065841,-0.174777,9.733926,-0.001997,-0.007856,-0.014381
1980-01-06T00:11:47.544416657Z,-0.067038,-0.147243,9.719561,-0.001332,-0.007723,-0.014381
1980-01-06T00:11:47.564288584Z,-0.079009,-0.165200,9.709984,-0.001198,-0.007324,-0.015446
1980-01-06T00:11:47.584175667Z,-0.084994,-0.173580,9.716568,-0.002929,-0.007590,-0.014381
1980-01-06T00:11:47.624045667Z,-0.079009,-0.154426,9.711780,-0.002264,-0.007191,-0.014381
1980-01-06T00:11:47.663673792Z,-0.069432,-0.171185,9.716568,-0.001198,-0.008522,-0.014381
1980-01-06T00:11:47.683478115Z,-0.080206,-0.174777,9.716568,-0.000000,-0.007057,-0.014381
1980-01-06T00:11:47.703428584Z,-0.083797,-0.173580,9.724349,-0.001198,-0.007324,-0.015446
1980-01-06T00:11:47.723206188Z,-0.081403,-0.177171,9.709984,-0.001332,-0.007989,-0.014381
1980-01-06T00:11:47.743060980Z,-0.079009,-0.160412,9.724349,-0.001065,-0.007057,-0.014381
1980-01-06T00:11:47.782822802Z,-0.068235,-0.168791,9.719561,-0.001997,-0.007723,-0.014381
1980-01-06T00:11:47.802684469Z,-0.081403,-0.148441,9.714772,-0.001198,-0.006924,-0.014381
1980-01-06T00:11:47.822540146Z,-0.083797,-0.171185,9.721356,-0.002796,-0.008522,-0.015446
1980-01-06T00:11:47.842431188Z,-0.076614,-0.175974,9.702203,-0.001198,-0.007856,-0.014381
1980-01-06T00:11:47.862293011Z,-0.075417,-0.180762,9.716568,-0.002131,-0.006658,-0.014381
1980-01-06T00:11:47.882168375Z,-0.076614,-0.171185,9.724349,-0.001065,-0.006791,-0.014381
1980-01-06T00:11:47.921889104Z,-0.080206,-0.175974,9.719561,-0.002663,-0.007590,-0.014381
1980-01-06T00:11:47.941829886Z,-0.075417,-0.173580,9.724349,-0.001731,-0.008123,-0.014381
1980-01-06T00:11:47.961690198Z,-0.080206,-0.168791,9.714772,-0.001332,-0.008522,-0.014381
1980-01-06T00:11:47.981580250Z,-0.059855,-0.168791,9.719561,-0.001332,-0.007989,-0.014381
1980-01-06T00:11:48.001450354Z,-0.071826,-0.172383,9.716568,-0.001731,-0.008123,-0.014381
1980-01-06T00:11:48.021254781Z,-0.077812,-0.166397,9.716568,-0.001997,-0.007856,-0.014381
1980-01-06T00:11:48.041101813Z,-0.216675,-0.061052,9.922470,0.001997,-0.008922,-0.015446
1980-01-06T00:11:48.080791031Z,0.002394,-0.192733,9.692626,-0.001065,-0.005459,-0.014381
1980-01-06T00:11:48.100788115Z,-0.112527,-0.179565,9.745298,-0.003063,-0.005593,-0.014381
1980-01-06T00:11:48.120529729Z,-0.094571,-0.138864,9.711780,-0.008522,-0.006125,-0.013316
1980-01-06T00:11:48.140412646Z,0.052672,-0.070629,9.596858,-0.011185,-0.001332,-0.015446
1980-01-06T00:11:48.160286604Z,-0.047884,-0.336385,9.788394,0.021039,-0.001198,-0.015446
1980-01-06T00:11:48.180161656Z,-0.190339,-0.294487,9.754875,0.011585,-0.007191,-0.014381
1980-01-06T00:11:48.200116396Z,0.058658,-0.125696,9.630377,0.016645,-0.012650,-0.013316
1980-01-06T00:11:48.239781865Z,-0.077812,-0.050278,9.750087,-0.003063,-0.004261,-0.013316
1980-01-06T00:11:48.259587750Z,-0.027533,-0.164003,9.625588,-0.042877,-0.009721,-0.014381
1980-01-06T00:11:48.279499365Z,-0.096965,-0.175974,9.769240,-0.013715,-0.019841,-0.011185
1980-01-06T00:11:48.299374886Z,-0.203507,-0.290895,9.743503,0.017177,-0.024368,0.006924
1980-01-06T00:11:48.319229781Z,-0.407014,-0.189142,9.642946,0.036618,-0.024901,0.056992
1980-01-06T00:11:48.339068427Z,0.441730,-0.168791,9.700407,0.017444,-0.004394,0.004794
1980-01-06T00:11:48.378839521Z,-0.047884,-0.168791,9.802759,0.046339,0.023169,-0.105994
1980-01-06T00:11:48.398696708Z,-0.198719,-0.021548,9.692626,0.055660,0.015579,-0.103863
1980-01-06T00:11:48.418537021Z,-0.341174,-0.099359,9.831490,0.101600,0.001465,-0.051665
1980-01-06T00:11:48.438547646Z,-0.413000,0.114922,10.142736,0.094942,0.119975,-0.052731
1980-01-06T00:11:48.458293010Z,-0.562637,0.217872,9.978135,0.087485,0.397610,-0.052731
1980-01-06T00:11:48.478182490Z,-0.673968,-0.008380,10.203190,0.188285,0.537292,-0.064448
1980-01-06T00:11:48.498098219Z,-0.156820,-0.050278,11.122563,0.017710,0.542219,-0.144343
1980-01-06T00:11:48.517910823Z,-0.536301,0.029928,9.676465,0.103597,0.546347,-0.199737
1980-01-06T00:11:48.537826656Z,0.014365,0.296881,10.188825,0.129563,0.259658,-0.020773
1980-01-06T00:11:48.557749677Z,-0.067038,0.235829,11.189601,0.140215,0.012783,0.178432
1980-01-06T00:11:48.577479625Z,-0.480037,0.314838,11.089045,-0.034088,-0.066579,0.239152
1980-01-06T00:11:48.597374417Z,-0.639252,0.138864,10.653299,0.032224,-0.024368,0.174171
1980-01-06T00:11:48.617279781Z,-0.709881,-0.129287,10.543166,0.124769,0.005726,0.108124
1980-01-06T00:11:48.637087438Z,-0.669179,-0.114922,10.595839,0.043010,0.056193,0.075101
1980-01-06T00:11:48.676891292Z,-0.496797,-0.020351,10.251074,-0.160588,-0.127565,0.198672
1980-01-06T00:11:48.696695094Z,-0.702698,0.531513,10.198401,0.052997,-0.110255,0.201867
1980-01-06T00:11:48.716584312Z,-0.508768,0.215478,10.442610,0.143944,-0.078297,0.222107
1980-01-06T00:11:48.736447958Z,-0.519542,0.002394,10.203190,0.141414,-0.050467,0.194411
1980-01-06T00:11:48.756369208Z,-0.427365,0.074220,10.179248,0.107592,-0.089882,0.179497
1980-01-06T00:11:48.776195875Z,-0.277727,0.123301,10.049961,0.070707,-0.141946,0.169910
1980-01-06T00:11:48.815974156Z,-0.539892,-0.208296,8.940847,0.087352,-0.254199,0.153931
1980-01-06T00:11:48.835820979Z,-0.225055,0.211887,10.171467,0.301736,-0.230496,0.052731
1980-01-06T00:11:48.855657281Z,-0.493206,0.259771,9.807548,-0.028363,-0.172040,0.134756
1980-01-06T00:11:48.875457542Z,-0.397437,0.299275,9.606435,-0.139816,-0.163518,0.209324
1980-01-06T00:11:48.895381708Z,-0.205901,0.096965,9.283816,-0.090414,-0.173771,0.233825
1980-01-06T00:11:48.915257073Z,-0.263362,-0.138864,9.121011,0.022237,-0.174570,0.143278
1980-01-06T00:11:48.935091917Z,-0.295684,-0.284910,9.178472,0.077098,-0.180962,0.003728
1980-01-06T00:11:48.974845667Z,-0.429759,0.131681,8.881591,-0.015047,-0.208792,0.018642
1980-01-06T00:11:48.994708271Z,-0.542287,0.131681,8.852860,-0.083889,-0.083756,0.066579
1980-01-06T00:11:49.014550927Z,-0.424971,0.246603,8.867226,-0.056992,0.092545,0.036752
1980-01-06T00:11:49.034443010Z,-0.110133,0.348356,9.020454,0.043409,0.139816,0.038882
1980-01-06T00:11:49.054279885Z,0.160412,0.310049,9.111434,0.106260,0.062584,0.061253
1980-01-06T00:11:49.074171760Z,0.055067,0.185551,9.183260,0.107059,-0.055660,0.102798
1980-01-06T00:11:49.094029989Z,-0.008380,0.071826,9.183260,0.071772,-0.138085,0.149670
1980-01-06T00:11:49.113872958Z,-0.142455,0.065841,9.188048,0.050999,-0.101333,0.125168
1980-01-06T00:11:49.133765198Z,-0.033519,0.089783,9.073127,0.084023,0.003595,0.042078
1980-01-06T00:11:49.153592802Z,-0.071826,-0.011971,9.116222,0.094409,0.049268,0.029295
1980-01-06T00:11:49.173490562Z,-0.294487,-0.020351,9.015666,0.106260,0.106660,0.025034
1980-01-06T00:11:49.193456396Z,-0.002394,-0.087388,9.336489,0.055527,0.157659,-0.009055
1980-01-06T00:11:49.213264885Z,-0.095768,0.007183,9.279028,0.015713,0.147805,0.022903
1980-01-06T00:11:49.233089625Z,-0.070629,0.010774,9.317335,-0.005326,0.208658,0.004794
1980-01-06T00:11:49.272833062Z,-0.014365,0.007183,9.360431,0.028229,0.269379,-0.045274
1980-01-06T00:11:49.292710510Z,0.070629,-0.005986,9.302970,0.002264,0.269112,-0.083623
1980-01-06T00:11:49.312559052Z,0.071826,-0.098162,9.374796,-0.000133,0.209990,-0.124103
1980-01-06T00:11:49.332393635Z,-0.084994,-0.113725,9.484929,-0.036485,0.141946,-0.168844
1980-01-06T00:11:49.352263062Z,-0.454898,-0.104148,9.451410,-0.064715,0.105062,-0.200802
1980-01-06T00:11:49.372163375Z,-0.684742,-0.189142,9.446622,-0.068843,0.127565,-0.213585
1980-01-06T00:11:49.392019989Z,-0.732626,-0.215478,9.561543,-0.053130,0.221575,-0.293480
1980-01-06T00:11:49.431725823Z,-0.374693,0.221464,9.676465,0.021305,0.280963,-0.258326
1980-01-06T00:11:49.451682333Z,-0.411803,0.055067,9.844060,0.061253,0.261522,-0.250870
1980-01-06T00:11:49.471601552Z,-0.351948,-0.089783,9.800964,0.046472,0.247008,-0.287089
1980-01-06T00:11:49.491469729Z,-0.393846,-0.059855,9.800964,0.011718,0.183891,-0.290284
1980-01-06T00:11:49.511225771Z,-0.450110,-0.143652,9.896732,-0.030360,0.186288,-0.330764
1980-01-06T00:11:49.531135458Z,-0.326809,-0.015562,9.992500,-0.039814,0.173372,-0.374440
1980-01-06T00:11:49.570998583Z,-0.409408,0.011971,9.968558,0.019974,0.091613,-0.372310
1980-01-06T00:11:49.590803427Z,-0.532710,-0.125696,9.925463,0.031825,0.113850,-0.402137
1980-01-06T00:11:49.610616604Z,-0.520739,-0.064643,10.035596,0.032624,0.100401,-0.436225
1980-01-06T00:11:49.630520302Z,-0.592565,0.008380,10.023026,0.030626,0.059255,-0.457930
1980-01-06T00:11:49.650262593Z,-0.651223,-0.037110,10.131364,-0.017710,0.022903,-0.490554
1980-01-06T00:11:49.670136604Z,-0.634463,-0.095768,10.184036,-0.035819,-0.020639,-0.527838
1980-01-06T00:11:49.690098270Z,-0.663194,-0.129287,10.452187,-0.061386,-0.041013,-0.540621
1980-01-06T00:11:49.709923895Z,-0.671574,-0.041899,10.514436,-0.044342,-0.038483,-0.551274
1980-01-06T00:11:49.729741968Z,-0.762553,0.088585,10.638934,0.039415,-0.054861,-0.598145
1980-01-06T00:11:49.749603114Z,-0.916979,0.046687,10.557531,0.064848,-0.110255,-0.636495
1980-01-06T00:11:49.769527802Z,-1.118092,-0.046687,10.270227,0.088683,-0.135555,-0.679106
1980-01-06T00:11:49.789376135Z,-1.072602,0.100556,10.351630,0.026498,-0.146474,-0.649278
1980-01-06T00:11:49.809262072Z,-0.961272,0.106542,10.418668,0.031558,-0.110122,-0.638626
1980-01-06T00:11:49.829090718Z,-0.973243,0.299275,10.126575,-0.013449,-0.079362,-0.583232
1980-01-06T00:11:49.868821708Z,-0.764947,0.210690,10.543166,0.091213,-0.011585,-0.576840
1980-01-06T00:11:49.888676812Z,-0.735020,0.320823,10.466552,0.135688,-0.019974,-0.592819
1980-01-06T00:11:49.908538635Z,-0.817620,0.338780,10.337265,0.091613,-0.094143,-0.573644
1980-01-06T00:11:49.928397333Z,-0.918176,0.494403,10.389937,0.096406,-0.145142,-0.573644
1980-01-06T00:11:49.948271031Z,-1.023521,0.575805,10.294169,0.121573,-0.122372,-0.586428
1980-01-06T00:11:49.968157541Z,-1.127669,0.622492,10.241497,0.179497,-0.081359,-0.568318
1980-01-06T00:11:49.988144364Z,-1.185130,0.724246,10.083480,0.227167,0.101466,-0.584297
1980-01-06T00:11:50.027753947Z,-1.137246,0.757765,10.514436,0.311590,0.235290,-0.550209
1980-01-06T00:11:50.047703843Z,-1.030704,0.828394,10.600627,0.281230,0.063783,-0.507598
1980-01-06T00:11:50.067497281Z,-1.030704,0.855927,10.452187,0.292149,-0.154064,-0.489489
1980-01-06T00:11:50.087361083Z,-1.007959,0.509965,9.949405,0.309725,-0.189084,-0.547013
1980-01-06T00:11:50.107294885Z,-1.519121,0.251391,9.465775,0.003063,-0.220376,-0.469249
1980-01-06T00:11:50.127183218Z,-1.051055,1.021127,10.576685,0.474442,-0.216515,-0.637560
1980-01-06T00:11:50.166841916Z,-1.423353,0.946907,10.155306,0.393349,-0.374973,-0.474575
1980-01-06T00:11:50.186780406Z,-1.424550,1.103727,10.409091,0.327835,-0.333561,-0.430899
1980-01-06T00:11:50.206616708Z,-1.323994,1.316811,9.834483,0.364720,-0.229032,-0.419181
1980-01-06T00:11:50.226410770Z,-1.301249,1.315614,9.810541,0.455800,-0.134756,-0.400006
1980-01-06T00:11:50.246278114Z,-1.192312,1.541866,9.992500,0.445014,-0.106926,-0.347809
1980-01-06T00:11:50.266143426Z,-1.134852,1.687912,9.686042,0.423176,-0.069242,-0.291350
1980-01-06T00:11:50.286035249Z,-1.120486,1.802834,9.686042,0.494016,-0.062984,-0.260457
1980-01-06T00:11:50.305855510Z,-1.039083,1.802834,9.662100,0.446612,-0.073503,-0.231695
1980-01-06T00:11:50.325759781Z,-1.104924,2.129642,9.858425,0.432364,-0.190416,-0.174171
1980-01-06T00:11:50.345628895Z,-1.203086,2.139219,9.815330,0.437690,-0.271775,-0.127299
1980-01-06T00:11:50.365509937Z,-1.326388,1.765724,9.748292,0.452737,-0.274705,-0.120907
1980-01-06T00:11:50.385374520Z,-1.207875,1.719037,9.499294,0.445680,-0.224238,-0.133691
1980-01-06T00:11:50.405279051Z,-1.182736,1.893813,9.547178,0.449541,-0.281762,-0.097472
1980-01-06T00:11:50.425073791Z,-1.165976,2.202666,10.160094,0.416518,-0.401604,-0.007989
1980-01-06T00:11:50.464810301Z,-1.084573,2.179921,9.499294,0.438889,-0.187753,-0.027164
1980-01-06T00:11:50.484791135Z,-1.256956,2.258929,8.579921,0.654738,-0.230630,-0.000533
1980-01-06T00:11:50.504543426Z,-1.187524,2.455254,9.030031,0.731303,-0.343947,0.131560
1980-01-06T00:11:50.524427541Z,-1.211466,2.613271,8.699631,0.713993,-0.252334,0.140082
1980-01-06T00:11:50.544316916Z,-1.007959,2.912546,9.183260,0.639291,-0.162186,0.188019
1980-01-06T00:11:50.564254624Z,-1.039083,3.045424,9.480141,0.365785,-0.119842,0.274305
1980-01-06T00:11:50.584108218Z,-1.011550,3.177106,9.164106,0.253400,-0.064448,0.299872
1980-01-06T00:11:50.603889051Z,-0.963666,3.217807,8.838495,0.284292,-0.039148,0.345678
1980-01-06T00:11:50.623911343Z,-0.925359,3.293224,8.666112,0.417051,0.013449,0.394680
1980-01-06T00:11:50.643643010Z,-0.859518,3.186682,8.417115,0.563524,0.022104,0.444748
1980-01-06T00:11:50.663509624Z,-0.767342,3.058593,8.455422,0.612393,0.001598,0.459661
1980-01-06T00:11:50.683362958Z,-0.597353,3.169923,8.833707,0.489222,-0.101999,0.493750
1980-01-06T00:11:50.703263426Z,-0.611719,3.010709,8.848072,0.360858,-0.173771,0.511859
1980-01-06T00:11:50.723150926Z,-0.508768,3.082535,9.001301,0.267248,-0.138351,0.480966
1980-01-06T00:11:50.762846655Z,-0.448913,3.517082,9.365219,0.109855,-0.056858,0.538491
1980-01-06T00:11:50.782777801Z,-0.501585,3.403358,8.838495,0.178298,-0.016378,0.552339
1980-01-06T00:11:50.802554416Z,-0.274136,3.214216,8.656535,0.273373,0.006525,0.569383
1980-01-06T00:11:50.822431030Z,-0.168791,3.117251,8.457218,0.266849,0.015713,0.599877
1980-01-06T00:11:50.842293426Z,-0.086191,3.163938,8.313566,0.170043,-0.023303,0.640357
1980-01-06T00:11:50.862154260Z,0.043096,2.876633,8.145972,0.054595,0.021572,0.630769
1980-01-06T00:11:50.882046499Z,0.191536,3.057395,8.198645,-0.046605,0.060187,0.610529
1980-01-06T00:11:50.901970874Z,0.311246,3.320758,7.997531,-0.074036,-0.004394,0.629704
1980-01-06T00:11:50.921866447Z,0.353145,3.180697,7.858668,-0.078696,-0.027164,0.613725
1980-01-06T00:11:50.941629520Z,0.310049,3.245340,8.165126,-0.103597,-0.087218,0.646748
1980-01-06T00:11:50.961572853Z,0.356736,3.342306,8.083723,-0.090947,-0.192546,0.746883
1980-01-06T00:11:50.981370249Z,0.355539,3.052607,7.887398,-0.012916,-0.158991,0.761797
1980-01-06T00:11:51.001210197Z,0.371101,2.923320,7.916129,-0.010786,-0.054861,0.791624
1980-01-06T00:11:51.021088062Z,0.496797,2.952051,7.959224,-0.055926,0.070707,0.841691
1980-01-06T00:11:51.060835614Z,0.659603,3.222595,7.868245,-0.074169,0.054062,0.889628
1980-01-06T00:11:51.080717541Z,0.706290,2.665944,8.040627,-0.080694,-0.061785,0.909868
1980-01-06T00:11:51.100552332Z,0.653617,2.140416,8.244733,-0.147006,-0.044741,0.885767
1980-01-06T00:11:51.120531916Z,0.766145,2.378639,8.217798,-0.228233,0.040879,0.859801
1980-01-06T00:11:51.160185562Z,1.070208,2.630031,8.605659,-0.230363,-0.020240,0.901346
1980-01-06T00:11:51.180114364Z,1.162385,2.697068,8.605659,-0.234358,0.050067,0.936500
1980-01-06T00:11:51.199994676Z,1.329979,2.741361,8.236952,-0.130894,0.099070,0.908803
1980-01-06T00:11:51.219813530Z,1.329979,2.293645,8.122030,-0.071772,0.045939,0.920521
1980-01-06T00:11:51.239637957Z,1.333570,1.924938,8.208221,-0.107192,0.054062,0.884302
1980-01-06T00:11:51.259502905Z,1.355118,1.824382,8.131607,-0.177233,0.111720,0.888563
1980-01-06T00:11:51.279374259Z,1.482011,1.866280,8.203433,-0.264319,0.152066,0.930108
1980-01-06T00:11:51.299237593Z,1.558625,1.823185,8.294413,-0.304932,0.160855,0.943957
1980-01-06T00:11:51.319111551Z,1.681927,1.722628,8.390181,-0.302269,0.193478,0.917325
1980-01-06T00:11:51.358866186Z,1.860295,1.501164,8.596082,-0.325571,0.170708,0.866192
1980-01-06T00:11:51.378718634Z,1.906982,1.602918,8.663119,-0.383761,0.190682,0.849148
1980-01-06T00:11:51.398615197Z,1.924938,1.675941,8.414123,-0.359526,0.235956,0.812929
1980-01-06T00:11:51.418531343Z,1.793257,1.379060,8.399757,-0.326770,0.197873,0.753274
1980-01-06T00:11:51.438363218Z,1.661576,1.102530,8.637382,-0.392416,0.153531,0.707868
1980-01-06T00:11:51.458248791Z,1.531092,1.108515,8.824130,-0.480567,0.102132,0.733434
1980-01-06T00:11:51.478105041Z,1.562217,0.628478,8.761880,-0.482564,0.194810,0.754739
1980-01-06T00:11:51.517846811Z,1.651999,0.526724,9.111434,-0.379900,0.434628,0.751543
1980-01-06T00:11:51.537617541Z,1.729811,0.081403,9.149741,-0.292548,0.480434,0.736630
1980-01-06T00:11:51.557492593Z,1.776498,0.166397,9.508871,-0.297475,0.460194,0.711063
1980-01-06T00:11:51.577433218Z,1.629254,0.598550,9.116222,-0.258992,0.450473,0.660996
1980-01-06T00:11:51.597239103Z,1.527501,0.290895,8.685266,-0.124902,0.444082,0.590689
1980-01-06T00:11:51.617109155Z,1.466449,-0.193930,8.757092,-0.141946,0.440753,0.536360
1980-01-06T00:11:51.637010353Z,1.337162,0.201113,9.001301,-0.263386,0.475507,0.531034
1980-01-06T00:11:51.656853947Z,1.310825,0.509965,8.761880,-0.302269,0.507199,0.525708
1980-01-06T00:11:51.676723530Z,1.240196,0.000000,8.934263,-0.292814,0.471912,0.490554
1980-01-06T00:11:51.696620926Z,1.242591,-0.146046,9.279028,-0.307195,0.461126,0.478836
1980-01-06T00:11:51.716496291Z,1.189918,-0.009577,9.082704,-0.287887,0.595216,0.413855
1980-01-06T00:11:51.736370613Z,1.106121,0.076614,9.111434,-0.276303,0.628372,0.315851
1980-01-06T00:11:51.756213322Z,1.043872,-0.385466,9.623793,-0.338221,0.426505,0.306263
1980-01-06T00:11:51.776081655Z,0.841562,-0.742203,9.288605,-0.361257,0.445680,0.305198
1980-01-06T00:11:51.795934155Z,1.201889,-0.781707,10.207978,-0.370978,0.654471,0.254065
1980-01-06T00:11:51.815847124Z,1.194707,0.032322,9.877579,-0.263786,0.758867,0.168844
1980-01-06T00:11:51.835632228Z,0.802058,-0.316035,9.963770,0.017444,0.743554,0.070840
1980-01-06T00:11:51.855547488Z,0.529119,-0.440533,9.800964,0.043276,0.621581,0.000533
1980-01-06T00:11:51.875411759Z,0.142455,-0.305261,9.647735,-0.020639,0.489355,-0.021838
1980-01-06T00:11:51.895310718Z,-0.051475,-0.302867,9.537601,-0.053796,0.480567,-0.107059
1980-01-06T00:11:51.915105405Z,-0.245406,-0.501585,9.714772,-0.067378,0.465520,-0.148604
1980-01-06T00:11:51.935038374Z,-0.325611,-0.568623,10.131364,-0.149803,0.428369,-0.168844
1980-01-06T00:11:51.954888634Z,-0.305261,0.011971,11.065103,-0.285757,0.459528,-0.196541
1980-01-06T00:11:51.974778895Z,-0.531513,0.171185,9.671677,-0.159923,0.456332,-0.218912
1980-01-06T00:11:51.994749988Z,-0.586579,-0.328006,10.380361,-0.057924,0.487491,-0.203998
1980-01-06T00:11:52.014456395Z,-0.755371,-0.311246,9.903316,0.059388,0.545282,-0.252334
1980-01-06T00:11:52.034396186Z,-0.962469,-0.395043,9.480141,0.118644,0.527971,-0.277501
1980-01-06T00:11:52.054246707Z,-1.065420,-0.591368,9.625588,0.023436,0.433562,-0.314120
1980-01-06T00:11:52.074057540Z,-1.017536,-0.204704,9.668684,-0.089482,0.365652,-0.326903
1980-01-06T00:11:52.093898999Z,-1.125275,0.122104,9.611223,-0.158857,0.353002,-0.321576
1980-01-06T00:11:52.113808374Z,-1.194707,0.011971,9.659107,-0.125834,0.333294,-0.299206
1980-01-06T00:11:52.133695040Z,-1.349133,-0.268151,9.689933,-0.095075,0.406265,-0.344613
1980-01-06T00:11:52.153507645Z,-1.407791,-0.168791,10.025121,-0.089349,0.449009,-0.421312
1980-01-06T00:11:52.173405301Z,-1.505953,0.020351,9.996390,-0.148604,0.352070,-0.419181
1980-01-06T00:11:52.193221967Z,-1.705869,-0.341174,9.790489,-0.097738,0.266715,-0.461792
1980-01-06T00:11:52.213157697Z,-1.792060,-0.380678,9.977237,-0.155528,0.262587,-0.471379
1980-01-06T00:11:52.233033426Z,-1.951274,-0.248997,9.766547,-0.031159,0.307062,-0.442617
1980-01-06T00:11:52.252860509Z,-1.878251,-0.056264,9.680356,0.029428,0.373109,-0.469249
1980-01-06T00:11:52.272740509Z,-1.787272,-0.102951,9.752182,0.032624,0.250603,-0.439421
1980-01-06T00:11:52.292598530Z,-1.756147,-0.257377,10.073005,-0.035686,0.058323,-0.404268
1980-01-06T00:11:52.312494363Z,-1.966837,-0.374693,9.962872,-0.019175,-0.035686,-0.435160
1980-01-06T00:11:52.332309519Z,-2.090138,-0.337582,9.817124,-0.001332,-0.032890,-0.489489
1980-01-06T00:11:52.352235197Z,-2.079364,-0.355539,9.620800,-0.052864,0.008256,-0.504402
1980-01-06T00:11:52.372065874Z,-1.997961,-0.389058,9.912893,-0.059921,0.070840,-0.528903
1980-01-06T00:11:52.411824207Z,-1.965640,-0.501585,9.908105,-0.148072,0.021705,-0.421312
1980-01-06T00:11:52.431665821Z,-1.914164,-0.374693,9.673472,-0.145009,0.032224,-0.387223
1980-01-06T00:11:52.451598009Z,-2.060210,-0.527921,9.726145,-0.124236,0.072038,-0.452204
1980-01-06T00:11:52.471444676Z,-1.958457,-0.372298,10.070910,-0.198405,0.070041,-0.501207
1980-01-06T00:11:52.511182801Z,-1.989582,-0.513556,10.204986,-0.128631,-0.100401,-0.526773
1980-01-06T00:11:52.531089624Z,-1.927332,-0.545878,10.178350,-0.050600,-0.221974,-0.488423
1980-01-06T00:11:52.550941082Z,-1.866280,-0.659603,9.795278,-0.019441,-0.260057,-0.446878
1980-01-06T00:11:52.570806134Z,-1.902193,-0.804452,9.728240,-0.014248,-0.158591,-0.499076
1980-01-06T00:11:52.590775769Z,-1.780089,-0.477643,10.120889,-0.045407,-0.158458,-0.426638
1980-01-06T00:11:52.610497696Z,-1.813608,-0.604536,10.575788,-0.071639,-0.166980,-0.396811
1980-01-06T00:11:52.630322019Z,-1.541866,-0.670376,10.681132,0.006125,-0.201468,-0.509729
1980-01-06T00:11:52.650300040Z,-1.550246,-0.391452,10.666767,0.045274,-0.434761,-0.442617
1980-01-06T00:11:52.670048946Z,-1.612495,-0.732626,10.537480,0.017843,-0.526773,-0.404268
1980-01-06T00:11:52.689902488Z,-1.559822,-0.695516,10.101735,0.015713,-0.368581,-0.502272
1980-01-06T00:11:52.709776082Z,-1.515530,-0.537498,10.326791,0.012916,-0.277102,-0.482032
1980-01-06T00:11:52.729639623Z,-1.468843,-0.553061,10.532692,-0.021438,-0.209724,-0.460726
1980-01-06T00:11:52.749587540Z,-1.444901,-0.361524,10.671556,0.023436,-0.176967,-0.478836
1980-01-06T00:11:52.769394519Z,-1.498770,-0.411803,10.379463,-0.002796,-0.185090,-0.395745
1980-01-06T00:11:52.789324207Z,-1.798046,-0.608127,10.506655,0.045274,-0.190416,-0.329699
1980-01-06T00:11:52.809139884Z,-2.039860,-0.744597,10.501866,0.080561,-0.042344,-0.419181
1980-01-06T00:11:52.848848842Z,-1.795651,-0.311246,10.372580,0.078430,-0.078164,-0.335025
1980-01-06T00:11:52.868760092Z,-1.746570,-0.335188,10.252870,0.094542,-0.048336,-0.341417
1980-01-06T00:11:52.888642957Z,-1.598130,-0.162806,10.123583,0.101999,-0.079229,-0.299872
1980-01-06T00:11:52.908420561Z,-1.644817,-0.221464,9.756970,0.109456,-0.121573,-0.255663
1980-01-06T00:11:52.928374728Z,-1.640028,-0.304064,9.589676,0.104928,-0.112252,-0.229032
1980-01-06T00:11:52.948203061Z,-1.480814,-0.292093,9.407717,0.073237,-0.069375,-0.207726
1980-01-06T00:11:52.968113790Z,-1.309628,-0.098162,9.422082,0.062052,-0.038083,-0.157659
1980-01-06T00:11:53.007796603Z,-1.027112,-0.359130,9.498696,0.074968,0.007856,-0.113983
1980-01-06T00:11:53.027713217Z,-1.035492,-0.324414,9.598654,0.074036,-0.047671,-0.132625
1980-01-06T00:11:53.047576915Z,-0.960075,-0.232238,9.522039,0.069775,-0.127832,-0.120907
1980-01-06T00:11:53.067476602Z,-1.017536,-0.253785,9.392753,0.086952,-0.157393,-0.095341
1980-01-06T00:11:53.087370509Z,-1.083376,-0.354342,9.292196,0.114383,-0.131693,-0.094276
1980-01-06T00:11:53.107154519Z,-1.092953,-0.414197,9.239524,0.105861,-0.078696,-0.110255
1980-01-06T00:11:53.146940457Z,-0.986411,-0.367510,9.143756,0.014115,-0.096140,-0.098537
1980-01-06T00:11:53.166761498Z,-1.013944,-0.474052,9.206005,-0.016245,-0.110921,-0.098537
1980-01-06T00:11:53.186695665Z,-0.980426,-0.295684,9.440637,-0.002929,-0.152466,-0.066579
1980-01-06T00:11:53.206437071Z,-1.048660,-0.331597,9.167698,0.028096,-0.168445,-0.027164
1980-01-06T00:11:53.226357280Z,-1.076194,-0.428562,9.201217,0.088816,-0.142213,-0.035686
1980-01-06T00:11:53.246262332Z,-1.047463,-0.391452,9.033623,0.117312,-0.095741,-0.047404
1980-01-06T00:11:53.266092488Z,-0.958878,-0.484826,8.852860,0.107325,-0.048469,-0.031425
1980-01-06T00:11:53.286037279Z,-0.858321,-0.525527,9.010878,0.096406,-0.044874,-0.043143
1980-01-06T00:11:53.305849363Z,-0.616507,-0.374693,9.250298,0.048869,-0.120108,-0.047404
1980-01-06T00:11:53.325724988Z,-0.679953,-0.280122,9.231144,0.047138,-0.231961,-0.050600
1980-01-06T00:11:53.345648477Z,-0.742203,-0.199916,9.183260,0.053929,-0.309060,0.009055
1980-01-06T00:11:53.365455144Z,-0.859518,-0.263362,9.211990,0.057258,-0.270577,0.071905
1980-01-06T00:11:53.385330769Z,-0.657208,-0.634463,9.168895,0.024368,-0.086420,-0.006924
1980-01-06T00:11:53.405176082Z,-0.001197,-0.527921,9.307758,0.013582,-0.114116,-0.163518
1980-01-06T00:11:53.425055196Z,0.083797,-0.426168,10.064326,-0.067378,-0.511992,-0.123038
1980-01-06T00:11:53.444908894Z,-0.180762,-0.319626,10.088268,-0.161920,-0.867524,-0.014381
1980-01-06T00:11:53.464794207Z,-0.706290,-0.178368,9.987712,-0.199204,-0.856605,0.067644
1980-01-06T00:11:53.484684050Z,-0.609324,-0.295684,9.690232,-0.138085,-0.563258,0.036219
1980-01-06T00:11:53.504521759Z,-0.469264,-0.254982,9.714174,0.007191,-0.193345,-0.129962
1980-01-06T00:11:53.524399988Z,0.022745,-0.444124,9.704597,-0.010519,-0.066313,-0.104396
1980-01-06T00:11:53.544286238Z,-0.276530,-0.542287,9.934441,-0.016245,-0.116513,-0.060720
1980-01-06T00:11:53.564128425Z,-0.639252,-0.434548,10.619183,-0.062318,-0.054728,0.017044
1980-01-06T00:11:53.583991602Z,3.386598,3.908534,19.051561,0.863929,-0.374573,-0.283360
1980-01-06T00:11:53.603878269Z,0.051475,-1.436521,9.637560,0.311989,-0.184823,-0.072438
1980-01-06T00:11:53.623781186Z,-0.174777,-0.901417,9.627983,0.055394,0.241415,-0.187486
1980-01-06T00:11:53.643565404Z,-0.430956,0.167594,9.695021,-0.006392,-0.052731,-0.006392
1980-01-06T00:11:53.663430873Z,-0.111330,-0.248997,9.623195,-0.061519,0.000799,0.055394
1980-01-06T00:11:53.683344623Z,-0.049081,-0.260968,9.704597,-0.047271,0.009854,0.025566
1980-01-06T00:11:53.703203269Z,-0.016759,-0.154426,9.795577,-0.039415,0.017710,0.050067
1980-01-06T00:11:53.723036654Z,0.047884,-0.205901,9.680655,-0.032224,0.006125,0.051133
1980-01-06T00:11:53.742948008Z,-0.160412,-0.408211,9.809942,-0.000666,0.003329,0.061785
1980-01-06T00:11:53.762803425Z,-0.385466,-0.527921,9.685444,0.013183,-0.013582,0.012783
1980-01-06T00:11:53.782650092Z,-0.298078,-0.216675,9.794978,0.043010,-0.029428,-0.019707
1980-01-06T00:11:53.802568113Z,0.038307,0.098162,9.751883,0.033289,-0.022104,-0.018642
1980-01-06T00:11:53.822396758Z,-0.007183,-0.257377,9.766248,0.072571,0.011585,-0.005859
1980-01-06T00:11:53.842252488Z,-0.114922,-0.409408,9.670480,-0.007723,0.001465,-0.014381
1980-01-06T00:11:53.862066394Z,-0.147243,-0.258574,9.700407,-0.008655,-0.007191,-0.014381
1980-01-06T00:11:53.901794415Z,-0.083797,-0.142455,9.757869,0.003995,-0.007457,-0.015446
1980-01-06T00:11:53.921661863Z,-0.090980,-0.169988,9.724349,0.001864,-0.007989,-0.013316
1980-01-06T00:11:53.941512227Z,-0.074220,-0.187945,9.724349,0.004128,-0.007590,-0.013316
1980-01-06T00:11:53.961393738Z,-0.073023,-0.209493,9.743503,0.000399,-0.007590,-0.014381
1980-01-06T00:11:53.981258165Z,-0.088585,-0.197522,9.743503,-0.001598,-0.007723,-0.013316
1980-01-06T00:11:54.001102748Z,-0.113725,-0.189142,9.724349,0.000533,-0.007856,-0.014381
1980-01-06T00:11:54.040846863Z,-0.062249,-0.213084,9.729137,-0.001864,-0.006791,-0.014381
1980-01-06T00:11:54.060725508Z,-0.100556,-0.203507,9.662100,-0.000399,-0.007191,-0.014381
1980-01-06T00:11:54.080432644Z,-0.088585,-0.193930,9.657311,0.000799,-0.008256,-0.014381
