timestamp,accel_x,accel_y,accel_z,gyro_x,gyro_y,gyro_z
1980-01-06T00:26:16.637055440Z,-0.065841,-0.184354,9.851841,-0.007989,-0.008522,-0.015446
1980-01-06T00:26:16.696664711Z,0.017957,-0.207098,9.727343,-0.001598,-0.009587,-0.015446
1980-01-06T00:26:16.716586013Z,-0.004788,-0.156820,9.703401,-0.002663,-0.007989,-0.013316
1980-01-06T00:26:16.736451742Z,-0.005986,-0.177171,9.684247,0.000533,-0.008256,-0.014381
1980-01-06T00:26:16.756325961Z,-0.044293,-0.215478,9.708189,-0.000799,-0.009321,-0.014381
1980-01-06T00:26:16.776185127Z,-0.013168,-0.227449,9.693824,-0.004128,-0.008788,-0.015446
1980-01-06T00:26:16.796017419Z,0.016759,-0.205901,9.712977,-0.003063,-0.008788,-0.015446
1980-01-06T00:26:16.835790179Z,-0.040701,-0.193930,9.727343,-0.003196,-0.008256,-0.014381
1980-01-06T00:26:16.855661169Z,-0.019154,-0.175974,9.712977,-0.003063,-0.008922,-0.014381
1980-01-06T00:26:16.875568669Z,-0.013168,-0.204704,9.732131,-0.004128,-0.008922,-0.014381
1980-01-06T00:26:16.895387106Z,0.017957,-0.209493,9.717766,-0.002796,-0.008123,-0.014381
1980-01-06T00:26:16.915276898Z,0.000000,-0.197522,9.708189,-0.001065,-0.007989,-0.014381
1980-01-06T00:26:16.935129815Z,-0.028730,-0.187945,9.712977,-0.001997,-0.009055,-0.014381
1980-01-06T00:26:16.994742002Z,-0.011971,-0.201113,9.712977,-0.002131,-0.008123,-0.014381
1980-01-06T00:26:17.014629502Z,-0.003591,-0.214281,9.703401,-0.001198,-0.007723,-0.014381
1980-01-06T00:26:17.034513669Z,0.013168,-0.214281,9.689035,-0.002397,-0.008389,-0.014381
1980-01-06T00:26:17.054351012Z,-0.023942,-0.187945,9.712977,-0.002397,-0.007989,-0.014381
1980-01-06T00:26:17.074187106Z,-0.004788,-0.187945,9.708189,-0.002264,-0.008522,-0.015446
1980-01-06T00:26:17.094099085Z,-0.004788,-0.209493,9.708189,-0.002929,-0.009587,-0.015446
1980-01-06T00:26:17.173534971Z,-0.026336,-0.100556,9.741708,0.055660,-0.003862,-0.013316
1980-01-06T00:26:17.193415752Z,-0.061052,-0.561440,9.507075,-0.020506,-0.013848,-0.014381
1980-01-06T00:26:17.213328877Z,0.191536,-0.238223,9.373000,-0.020373,-0.016245,0.002663
1980-01-06T00:26:17.233202992Z,-0.244209,-0.069432,10.048165,0.005992,-0.008389,-0.011185
1980-01-06T00:26:17.253082471Z,0.029928,-0.038307,9.799169,0.030094,-0.017577,-0.014381
1980-01-06T00:26:17.332531169Z,0.081403,-0.189142,9.674670,-0.012117,-0.005459,-0.014381
1980-01-06T00:26:17.352455387Z,-0.047884,-0.105345,9.727343,0.018509,-0.010120,-0.014381
1980-01-06T00:26:17.372277523Z,0.045490,-0.328006,9.659107,0.017577,-0.009987,-0.015846
1980-01-06T00:26:17.392121533Z,-0.041899,-0.237026,9.730933,-0.000932,-0.008922,-0.016911
1980-01-06T00:26:17.412228564Z,0.033519,-0.283713,9.711780,0.015313,-0.010519,-0.021172
1980-01-06T00:26:17.451757523Z,-0.045490,-0.108936,9.745298,-0.001731,-0.011585,-0.012650
1980-01-06T00:26:17.471823356Z,-0.009577,-0.265756,9.697414,0.012384,-0.015979,-0.019042
1980-01-06T00:26:17.491495752Z,-0.111330,-0.263362,9.721356,0.007324,-0.011052,-0.038216
1980-01-06T00:26:17.511374710Z,-0.031125,0.007183,9.750087,-0.002264,-0.010519,-0.037151
1980-01-06T00:26:17.531269710Z,0.014365,-0.164003,9.726145,-0.036618,0.002796,-0.011585
1980-01-06T00:26:17.551120752Z,0.003591,-0.155623,9.754875,-0.018642,-0.001598,-0.009454
1980-01-06T00:26:17.610730179Z,-0.472855,-0.375890,9.642946,-0.029028,-0.003995,0.115048
1980-01-06T00:26:17.630759189Z,-0.192733,-0.379481,9.647735,0.000133,-0.005193,0.094808
1980-01-06T00:26:17.650489450Z,-0.020351,-0.423774,9.705195,0.007590,-0.002796,0.055394
1980-01-06T00:26:17.670296325Z,-0.057461,-0.254982,9.767446,0.025833,0.005326,-0.013848
1980-01-06T00:26:17.690193096Z,0.278924,-0.460884,9.863214,0.029428,0.021438,0.024501
1980-01-06T00:26:17.710116221Z,0.474052,-0.420182,9.796176,-0.062185,-0.005992,0.073503
1980-01-06T00:26:17.769639033Z,1.182736,-0.897826,10.361207,-0.342615,0.198272,-0.109722
1980-01-06T00:26:17.789541325Z,1.138443,-0.883460,9.580697,-0.343281,0.169377,-0.198139
1980-01-06T00:26:17.809428460Z,0.998382,-0.760159,9.896732,-0.291616,-0.002131,-0.193878
1980-01-06T00:26:17.829313512Z,0.768539,-0.841562,10.016442,-0.236355,-0.024235,-0.204531
1980-01-06T00:26:17.849166273Z,0.538695,-0.875081,9.896732,-0.112785,0.133291,-0.270577
1980-01-06T00:26:17.869229502Z,0.538695,-0.936133,9.796176,-0.042611,0.286423,-0.360059
1980-01-06T00:26:17.908749345Z,0.335188,-0.891840,10.155306,0.041545,0.178032,-0.433562
1980-01-06T00:26:17.928642054Z,0.430956,-0.950498,10.207978,0.052597,0.219178,-0.492152
1980-01-06T00:26:17.948513252Z,0.068235,-0.814029,10.356419,0.005726,0.256595,-0.528371
1980-01-06T00:26:17.968370075Z,0.136469,-0.776918,10.164883,0.029961,0.378967,-0.612527
1980-01-06T00:26:17.988263252Z,0.135272,-0.672771,10.078691,0.022237,0.386158,-0.660463
1980-01-06T00:26:18.008112054Z,0.005986,-0.671574,9.949405,0.010519,0.322642,-0.679638
1980-01-06T00:26:18.028008304Z,-0.221464,-0.622492,9.844060,-0.023835,0.288820,-0.706270
1980-01-06T00:26:18.067704137Z,-0.240617,-0.333991,10.088268,-0.050866,0.218379,-0.660463
1980-01-06T00:26:18.087608825Z,-0.493206,-0.539892,10.045173,0.043942,0.162985,-0.660463
1980-01-06T00:26:18.107501793Z,-0.539892,-0.579397,10.155306,0.044208,0.135954,-0.635962
1980-01-06T00:26:18.127344762Z,-0.442927,-0.541090,10.070611,0.037151,-0.012251,-0.671649
1980-01-06T00:26:18.147215231Z,-0.639252,-0.439336,9.984420,0.045540,-0.213985,-0.645017
1980-01-06T00:26:18.167078616Z,-0.626084,-0.499191,10.161591,0.054328,-0.282694,-0.621581
1980-01-06T00:26:18.246568772Z,-0.225055,-0.538695,10.214263,0.065247,-0.035686,-0.618385
1980-01-06T00:26:18.266426168Z,-0.385466,-0.478840,10.391434,0.064582,0.003595,-0.625842
1980-01-06T00:26:18.286291116Z,-0.532710,-0.233435,10.482413,0.124503,0.122505,-0.639691
1980-01-06T00:26:18.306221793Z,-0.548272,-0.333991,10.544662,0.180429,0.192413,-0.643952
1980-01-06T00:26:18.326041585Z,-0.426168,-0.441730,10.745776,0.168977,0.134623,-0.631169
1980-01-06T00:26:18.385684085Z,-0.773327,-0.162806,11.243770,0.271110,0.052464,-0.624777
1980-01-06T00:26:18.405533408Z,-0.769736,-0.073023,11.392210,0.325172,0.191082,-0.619451
1980-01-06T00:26:18.425381272Z,-0.797269,-0.316035,11.392210,0.348874,0.183492,-0.656735
1980-01-06T00:26:18.445460856Z,-0.957681,-0.307655,11.444882,0.334093,0.105461,-0.636495
1980-01-06T00:26:18.465155856Z,-1.174356,-0.472855,11.119271,0.358594,0.214651,-0.659931
1980-01-06T00:26:18.524753095Z,-1.394622,0.196325,11.248558,0.589623,0.067911,-0.626908
1980-01-06T00:26:18.544621116Z,-1.847127,0.282516,10.338761,0.486559,-0.027830,-0.558731
1980-01-06T00:26:18.564468356Z,-1.914164,0.621295,10.348338,0.597613,-0.135688,-0.526773
1980-01-06T00:26:18.584339814Z,-1.951274,0.508768,10.132860,0.701876,-0.119709,-0.512924
1980-01-06T00:26:18.604227626Z,-2.087744,0.404620,10.061034,0.713727,-0.081359,-0.474575
1980-01-06T00:26:18.624088043Z,-2.315193,0.606930,10.372280,0.734100,-0.136487,-0.374440
1980-01-06T00:26:18.683703199Z,-2.323573,1.145625,10.626365,0.803342,-0.113451,-0.173505
1980-01-06T00:26:18.703580074Z,-2.249352,1.276109,10.612000,0.781105,-0.101333,-0.096806
1980-01-06T00:26:18.723470022Z,-2.145205,1.403002,10.171467,0.882571,-0.123437,-0.033955
1980-01-06T00:26:18.743356429Z,-2.267309,1.727417,10.453982,1.016261,-0.187220,0.006525
1980-01-06T00:26:18.763173512Z,-2.231396,1.754950,10.295965,0.976314,-0.211987,0.102398
1980-01-06T00:26:18.783050699Z,-2.329558,1.873463,9.936835,0.936899,-0.186421,0.170575
1980-01-06T00:26:18.842681637Z,-2.208651,2.518700,9.529820,0.998951,-0.004661,0.362323
1980-01-06T00:26:18.862547366Z,-2.098518,2.625242,9.577704,1.032240,-0.039814,0.426239
1980-01-06T00:26:18.882424658Z,-2.246958,2.650381,8.854655,1.051282,-0.017311,0.464588
1980-01-06T00:26:18.902285283Z,-1.910573,2.995146,8.608651,1.233442,-0.038749,0.534762
1980-01-06T00:26:18.922137522Z,-2.309207,2.754529,8.666112,1.028645,-0.106393,0.574177
1980-01-06T00:26:18.942037366Z,-2.406173,3.077746,7.866449,0.801078,-0.012916,0.616788
1980-01-06T00:26:18.981767626Z,-1.831564,3.545813,7.923910,0.719186,0.027830,0.792556
1980-01-06T00:26:19.001616324Z,-1.610101,3.888184,7.832930,0.816125,0.026099,0.877777
1980-01-06T00:26:19.021492053Z,-1.412579,3.630807,7.421127,0.909868,0.006525,0.952346
1980-01-06T00:26:19.041353460Z,-1.194707,3.327940,6.870461,0.871519,-0.000799,1.000282
1980-01-06T00:26:19.061231220Z,-0.952892,3.321955,6.587945,0.712661,0.028895,1.050350
1980-01-06T00:26:19.081115491Z,-0.718261,3.557784,6.726809,0.598811,0.145408,1.068459
1980-01-06T00:26:19.140728095Z,0.039504,3.858256,6.803423,0.528371,0.233293,1.074851
1980-01-06T00:26:19.160567939Z,0.108936,3.804387,6.803423,0.499342,0.211322,1.110005
1980-01-06T00:26:19.180454033Z,0.038307,3.910928,6.717232,0.414254,0.244611,1.129179
1980-01-06T00:26:19.200349449Z,0.202310,4.034230,6.899191,0.339686,0.275371,1.137701
1980-01-06T00:26:19.220210647Z,0.254982,4.279635,7.033267,0.327302,0.235423,1.149419
1980-01-06T00:26:19.240086480Z,0.211887,4.290410,6.918345,0.393615,0.265517,1.138767
1980-01-06T00:26:19.299704397Z,0.611719,3.951630,6.611887,0.157526,0.474841,1.159007
1980-01-06T00:26:19.319556168Z,0.858321,4.077325,6.516119,0.074968,0.530768,1.160072
1980-01-06T00:26:19.339468616Z,1.076194,3.975572,6.659771,0.014115,0.451805,1.185638
1980-01-06T00:26:19.359285335Z,1.207875,4.143166,6.674137,-0.049135,0.399208,1.160072
1980-01-06T00:26:19.379161272Z,1.179144,4.058172,6.449081,-0.041146,0.348741,1.119592
1980-01-06T00:26:19.399038303Z,1.250970,3.739743,6.391621,-0.099735,0.345944,1.104678
1980-01-06T00:26:19.438783407Z,1.499967,3.848679,6.808212,-0.307062,0.352869,1.131310
1980-01-06T00:26:19.458635282Z,1.675941,3.708618,6.808212,-0.369114,0.316250,1.136636
1980-01-06T00:26:19.478515803Z,1.918953,3.460819,6.856096,-0.441152,0.398275,1.088699
1980-01-06T00:26:19.498391168Z,2.264915,3.268085,7.454646,-0.514922,0.470314,1.082308
1980-01-06T00:26:19.518464137Z,2.436100,3.440468,7.746739,-0.559663,0.600675,1.038632
1980-01-06T00:26:19.538151376Z,2.296039,3.678691,7.727585,-0.531700,0.660597,0.957672
1980-01-06T00:26:19.597764241Z,1.898602,2.935291,7.330148,-0.475906,0.333294,0.777642
1980-01-06T00:26:19.617642418Z,1.932121,2.461239,7.593510,-0.555801,0.481765,0.794687
1980-01-06T00:26:19.637487522Z,2.170344,2.881422,7.890391,-0.679505,0.678173,0.751011
1980-01-06T00:26:19.657334501Z,2.255338,3.076549,7.990947,-0.651542,0.518517,0.689225
1980-01-06T00:26:19.677217626Z,2.115277,2.394202,8.283040,-0.580569,0.309592,0.634897
1980-01-06T00:26:19.697097470Z,2.031480,2.138022,8.196849,-0.641821,0.372043,0.555002
1980-01-06T00:26:19.756695022Z,1.904588,2.127248,8.589498,-0.843156,0.388289,0.500674
1980-01-06T00:26:19.776568668Z,1.905785,1.936909,8.943840,-0.857005,0.377636,0.461259
1980-01-06T00:26:19.796450178Z,1.649605,1.898602,9.221567,-0.866592,0.390552,0.362190
1980-01-06T00:26:19.816310595Z,1.486799,1.789666,9.164106,-0.815592,0.278433,0.309992
1980-01-06T00:26:19.836405282Z,1.191115,1.368286,9.135376,-0.764193,0.292282,0.254598
1980-01-06T00:26:19.856318147Z,0.994791,1.167173,9.307758,-0.821851,0.403602,0.233293
1980-01-06T00:26:19.876138459Z,0.841562,1.247379,9.288605,-0.835832,0.488956,0.190682
1980-01-06T00:26:19.895796116Z,0.900220,1.347936,9.355642,-0.837164,0.415053,0.189617
1980-01-06T00:26:19.915665334Z,1.240196,0.963666,9.585485,-0.801877,0.398808,0.156594
1980-01-06T00:26:19.935557782Z,1.274912,0.688333,9.829695,-0.819454,0.516253,0.119310
1980-01-06T00:26:19.955397418Z,1.132457,0.903811,10.160094,-0.791491,0.645017,0.040480
1980-01-06T00:26:19.975315803Z,1.063026,0.788889,10.480917,-0.712528,0.612660,0.002131
1980-01-06T00:26:19.995139397Z,0.942118,0.726640,10.715549,-0.629704,0.570315,-0.027697
1980-01-06T00:26:20.015040543Z,0.738611,0.591368,10.437821,-0.510927,0.618252,-0.131027
1980-01-06T00:26:20.054730230Z,0.660800,-0.131681,10.394726,-0.653273,0.550209,-0.232227
1980-01-06T00:26:20.074610959Z,0.380678,0.222661,10.801741,-0.325438,0.522379,-0.370712
1980-01-06T00:26:20.094487886Z,0.037110,-0.295684,10.524013,-0.312122,0.538358,-0.384560
1980-01-06T00:26:20.114365855Z,0.013168,-0.186748,10.945393,-0.290151,0.488024,-0.435693
1980-01-06T00:26:20.134299553Z,-0.221464,-0.041899,10.715549,-0.222640,0.462458,-0.471912
1980-01-06T00:26:20.154127626Z,-0.391452,-0.104148,10.524013,-0.152466,0.520381,-0.567785
1980-01-06T00:26:20.213686949Z,0.052672,-0.561440,10.299557,-0.201601,0.405999,-0.692954
1980-01-06T00:26:20.233555595Z,-0.017957,-0.311246,10.232519,-0.109589,0.359660,-0.708933
1980-01-06T00:26:20.253453772Z,-0.022745,-0.310049,10.122386,-0.119043,0.348075,-0.729173
1980-01-06T00:26:20.273327990Z,-0.124498,-0.099359,10.117598,-0.072704,0.351537,-0.772849
1980-01-06T00:26:20.293237522Z,-0.494403,-0.365116,10.031405,-0.086153,0.366451,-0.815459
1980-01-06T00:26:20.313101740Z,-0.934936,-0.694318,10.189424,-0.156194,0.379234,-0.913463
1980-01-06T00:26:20.353015074Z,-1.331176,-0.620098,10.955567,-0.360725,0.180695,-1.015729
1980-01-06T00:26:20.372825490Z,-1.334767,-0.405817,11.161469,-0.380699,0.090681,-1.064731
1980-01-06T00:26:20.392548876Z,-1.325191,-0.288501,11.185411,-0.340884,0.048603,-1.093493
1980-01-06T00:26:20.412419136Z,-1.550246,-0.493206,11.199777,-0.235024,0.056858,-1.116929
1980-01-06T00:26:20.432302730Z,-1.541866,-0.715866,11.108797,-0.198805,0.026632,-1.116929
1980-01-06T00:26:20.452157417Z,-1.772906,-0.685939,11.204565,-0.176035,-0.037018,-1.088167
1980-01-06T00:26:20.472248667Z,-1.978808,-0.550666,11.190200,-0.167246,-0.023169,-1.035969
1980-01-06T00:26:20.511752886Z,-2.120066,-0.399832,11.554118,-0.088816,0.060054,-0.977379
1980-01-06T00:26:20.531669657Z,-2.163161,-0.512359,11.664251,-0.009055,0.003196,-0.940095
1980-01-06T00:26:20.551508147Z,-2.155979,-0.555455,11.563695,0.049934,-0.027297,-0.943291
1980-01-06T00:26:20.571355855Z,-2.116474,-0.464475,11.333852,0.128897,-0.068443,-0.925181
1980-01-06T00:26:20.591285334Z,-2.027889,-0.480037,10.883741,0.196008,-0.069109,-0.917725
1980-01-06T00:26:20.611144969Z,-2.039860,-0.527921,10.462362,0.229564,-0.075767,-0.863396
1980-01-06T00:26:20.631064240Z,-2.085350,-0.573411,10.251673,0.249671,-0.064715,-0.819720
1980-01-06T00:26:20.670733042Z,-1.826776,-0.349553,9.878177,0.292282,-0.018243,-0.765392
1980-01-06T00:26:20.690578251Z,-1.940500,-0.468066,9.720160,0.313587,-0.039015,-0.746217
1980-01-06T00:26:20.710495907Z,-1.982399,-0.403423,9.897330,0.272308,-0.091213,-0.722781
1980-01-06T00:26:20.730371063Z,-2.100912,-0.172383,9.815928,0.286156,-0.157126,-0.690823
1980-01-06T00:26:20.750204813Z,-2.187103,-0.074220,9.906907,0.320378,-0.192680,-0.671649
1980-01-06T00:26:20.770088667Z,-2.159570,-0.007183,9.892542,0.348341,-0.200003,-0.642887
1980-01-06T00:26:20.829708094Z,-1.884237,0.283713,10.462362,0.257794,-0.062717,-0.460726
1980-01-06T00:26:20.849573146Z,-1.733402,0.407014,10.778397,0.283626,-0.129962,-0.391484
1980-01-06T00:26:20.869429813Z,-1.580173,0.417788,10.931625,0.314519,-0.160988,-0.391484
1980-01-06T00:26:20.889400282Z,-1.452083,0.398635,10.936414,0.362589,-0.246076,-0.398941
1980-01-06T00:26:20.909192157Z,-1.446098,0.262165,10.969933,0.370179,-0.315717,-0.364853
1980-01-06T00:26:20.929094813Z,-1.559822,0.227449,11.070489,0.364853,-0.283094,-0.358461
1980-01-06T00:26:20.968775907Z,-1.647211,0.503979,11.180623,0.407197,-0.254199,-0.323307
1980-01-06T00:26:20.988652521Z,-1.691504,0.664391,11.070489,0.482698,-0.262987,-0.310524
1980-01-06T00:26:21.008564813Z,-1.725022,0.654814,10.816704,0.550608,-0.293746,-0.254065
1980-01-06T00:26:21.028416219Z,-1.714248,0.647632,10.629956,0.601341,-0.289885,-0.240217
1980-01-06T00:26:21.048452782Z,-1.666364,0.763750,10.371383,0.609597,-0.313720,-0.217846
1980-01-06T00:26:21.068322001Z,-1.672350,0.833182,10.117598,0.592020,-0.318247,-0.200802
1980-01-06T00:26:21.088184292Z,-1.527501,1.167173,10.078691,0.687494,-0.360725,-0.174703
1980-01-06T00:26:21.127772001Z,-1.503559,1.079785,9.432257,0.744087,-0.317981,-0.099070
1980-01-06T00:26:21.147630751Z,-1.529895,1.168370,9.365219,0.660597,-0.301336,-0.033023
1980-01-06T00:26:21.167464292Z,-1.582567,1.423353,9.140164,0.557399,-0.243945,0.023436
1980-01-06T00:26:21.187361636Z,-1.545457,1.707066,9.221567,0.497345,-0.223705,0.076699
1980-01-06T00:26:21.207258719Z,-1.443704,1.824382,9.408315,0.440087,-0.182959,0.128897
1980-01-06T00:26:21.227078407Z,-1.508347,2.027889,9.547178,0.436492,-0.132492,0.187486
1980-01-06T00:26:21.247001428Z,-1.353921,2.068590,9.604639,0.474575,-0.068044,0.259924
1980-01-06T00:26:21.286690438Z,-0.667982,2.245761,9.374796,0.582166,0.001598,0.328101
1980-01-06T00:26:21.306590125Z,-0.587777,2.084153,9.417892,0.554203,-0.053396,0.373908
1980-01-06T00:26:21.326475907Z,-0.764947,1.977611,9.393950,0.534895,-0.105594,0.402670
1980-01-06T00:26:21.346304136Z,-0.822408,2.167950,9.508871,0.499342,-0.085354,0.402670
1980-01-06T00:26:21.366201480Z,-0.896629,2.497152,8.929475,0.670983,-0.128364,0.412257
1980-01-06T00:26:21.386079500Z,-1.009156,2.458845,9.647735,0.554070,-0.163651,0.481499
1980-01-06T00:26:21.426106480Z,-0.466869,2.776077,9.259874,0.302002,-0.015313,0.493217
1980-01-06T00:26:21.445656532Z,-0.545878,2.807201,8.891168,0.283626,0.046605,0.517718
1980-01-06T00:26:21.465531948Z,-0.503979,3.104083,9.221567,0.374307,0.066313,0.583764
1980-01-06T00:26:21.485418771Z,-0.503979,2.979584,9.020454,0.533830,0.133291,0.597613
1980-01-06T00:26:21.505288511Z,-0.229843,2.847903,8.623016,0.590422,0.150202,0.558198
1980-01-06T00:26:21.525172677Z,-0.284910,2.792836,8.096292,0.613991,0.029561,0.574177
1980-01-06T00:26:21.545025542Z,-0.189142,2.636016,8.014890,0.521180,-0.078829,0.583764
1980-01-06T00:26:21.584772052Z,-0.226252,3.155558,8.383596,0.363654,-0.219844,0.627440
1980-01-06T00:26:21.604609448Z,-0.283713,3.205836,8.694842,0.297874,-0.151134,0.631701
1980-01-06T00:26:21.624527000Z,-0.234632,3.268085,8.752303,0.265916,-0.025699,0.627440
1980-01-06T00:26:21.644414084Z,-0.076614,3.251326,8.718784,0.315318,0.056992,0.635962
1980-01-06T00:26:21.664252052Z,-0.126893,3.172317,8.512883,0.349806,0.035553,0.693487
1980-01-06T00:26:21.684120907Z,0.020351,3.124433,8.431480,0.349806,0.022371,0.725444
1980-01-06T00:26:21.704065542Z,0.162806,3.313575,8.374020,0.310924,-0.010253,0.753141
1980-01-06T00:26:21.743704552Z,0.489614,3.357868,8.306982,0.242214,-0.038483,0.752076
1980-01-06T00:26:21.763599709Z,0.685939,3.661932,8.330924,0.187886,-0.046206,0.744619
1980-01-06T00:26:21.783490021Z,0.659603,3.848679,8.306982,0.232361,-0.103996,0.781903
1980-01-06T00:26:21.803446688Z,0.646434,3.659537,8.321347,0.331297,-0.047404,0.803209
1980-01-06T00:26:21.823253771Z,0.822408,3.518279,8.177695,0.356331,0.044075,0.768055
1980-01-06T00:26:21.843096896Z,0.972046,3.414132,8.034043,0.289086,0.025833,0.755272
1980-01-06T00:26:21.902708563Z,1.355118,3.575740,7.454646,0.183092,0.338754,0.702009
1980-01-06T00:26:21.922582990Z,1.358709,3.578135,7.416339,0.127832,0.351271,0.721183
1980-01-06T00:26:21.942438771Z,1.216254,3.626019,7.287052,0.054861,0.339420,0.727575
1980-01-06T00:26:21.962297677Z,1.164779,3.469198,7.215226,0.024235,0.363921,0.733967
1980-01-06T00:26:21.982176792Z,1.313220,3.350685,7.344513,-0.034754,0.361524,0.740358
1980-01-06T00:26:22.002033146Z,1.234211,3.391387,7.287052,-0.068044,0.298940,0.749946
1980-01-06T00:26:22.041984500Z,1.181539,3.175909,7.220015,-0.175236,0.296410,0.727575
1980-01-06T00:26:22.061624708Z,1.253365,2.985569,7.421127,-0.254598,0.281895,0.740358
1980-01-06T00:26:22.081505281Z,1.398214,2.971204,7.756316,-0.328634,0.292947,0.741423
1980-01-06T00:26:22.101382625Z,1.491588,2.875436,8.077139,-0.313986,0.329965,0.722249
1980-01-06T00:26:22.121271479Z,1.491588,2.761712,8.153753,-0.314785,0.370046,0.705204
1980-01-06T00:26:22.141205125Z,1.418565,2.667141,8.216002,-0.330365,0.360325,0.691356
1980-01-06T00:26:22.161026844Z,1.441309,2.647987,8.249521,-0.337822,0.302801,0.683899
1980-01-06T00:26:22.200707104Z,1.276109,2.146402,8.062774,-0.317848,0.222374,0.654072
1980-01-06T00:26:22.220594240Z,1.355118,2.033874,8.263886,-0.381364,0.259392,0.675377
1980-01-06T00:26:22.240465021Z,1.556231,2.183512,8.426692,-0.408529,0.343414,0.659398
1980-01-06T00:26:22.260335490Z,1.655591,2.148796,8.503306,-0.405333,0.382829,0.639158
1980-01-06T00:26:22.280249448Z,1.685518,2.103306,8.723573,-0.451405,0.409461,0.601874
1980-01-06T00:26:22.300079083Z,1.654393,2.390610,8.804976,-0.435826,0.409860,0.564590
1980-01-06T00:26:22.359698823Z,1.296460,1.435324,8.872014,-0.484429,0.326237,0.411192
1980-01-06T00:26:22.379598563Z,1.193510,1.842338,9.039608,-0.528104,0.406664,0.377103
1980-01-06T00:26:22.399454240Z,1.213860,1.643619,8.958205,-0.434894,0.432231,0.351537
1980-01-06T00:26:22.419356792Z,1.377863,1.246182,9.173683,-0.416252,0.455933,0.362190
1980-01-06T00:26:22.439193771Z,1.393425,1.254562,8.916905,-0.343947,0.566054,0.332495
1980-01-06T00:26:22.459257417Z,1.188721,1.079785,8.500314,-0.270976,0.696416,0.248340
1980-01-06T00:26:22.498797573Z,1.277307,1.527501,9.170691,-0.595615,0.570182,0.073636
1980-01-06T00:26:22.518679135Z,0.908600,1.685518,9.237728,-0.496546,0.537292,-0.016911
1980-01-06T00:26:22.538519865Z,0.502782,1.343147,9.247305,-0.387623,0.628372,-0.115981
1980-01-06T00:26:22.558376375Z,0.251391,0.982820,9.185056,-0.393615,0.565788,-0.133025
1980-01-06T00:26:22.578466792Z,0.147243,0.757765,9.515455,-0.548744,0.560728,-0.180962
1980-01-06T00:26:22.598166427Z,0.278924,1.098939,9.855432,-0.719852,0.561261,-0.200136
1980-01-06T00:26:22.657734187Z,0.084994,0.913388,10.835259,-0.629704,0.557000,-0.297209
1980-01-06T00:26:22.677588146Z,-0.020351,0.855927,11.160871,-0.511726,0.450873,-0.341950
1980-01-06T00:26:22.697492677Z,-0.356736,0.480037,10.830471,-0.422776,0.389620,-0.426105
1980-01-06T00:26:22.717367781Z,-0.469264,0.278924,11.146505,-0.394547,0.359260,-0.524110
1980-01-06T00:26:22.737244812Z,-0.805649,0.355539,10.433033,-0.378701,0.294679,-0.526240
1980-01-06T00:26:22.757080750Z,-0.817620,0.213084,10.739491,-0.329699,0.254332,-0.549676
1980-01-06T00:26:22.777012781Z,-0.798466,0.240617,10.911874,-0.330365,0.202267,-0.511326
1980-01-06T00:26:22.816726531Z,-0.768539,-0.131681,10.552743,-0.121973,0.349140,-0.632767
1980-01-06T00:26:22.836558302Z,-0.745794,-0.138864,10.418668,-0.135422,0.276436,-0.626375
1980-01-06T00:26:22.856440906Z,-0.887052,-0.298078,10.437821,-0.147672,0.234757,-0.612527
1980-01-06T00:26:22.876350177Z,-0.982820,-0.247800,10.409091,-0.145542,0.338487,-0.662594
1980-01-06T00:26:22.896401896Z,-1.074997,-0.070629,10.198401,-0.093743,0.426638,-0.713727
1980-01-06T00:26:22.916113198Z,-1.126472,-0.100556,10.021231,-0.045274,0.437158,-0.743554
1980-01-06T00:26:22.975717729Z,-1.619677,-0.265756,10.351630,-0.096939,0.311057,-0.793621
1980-01-06T00:26:22.995552833Z,-1.552640,-0.248997,10.246285,-0.076433,0.290950,-0.804274
1980-01-06T00:26:23.015462885Z,-1.461660,-0.323217,10.102633,-0.039415,0.298407,-0.828775
1980-01-06T00:26:23.035285906Z,-1.392228,-0.220267,10.011654,-0.037284,0.262587,-0.859668
1980-01-06T00:26:23.055145073Z,-1.523909,-0.159214,9.982924,-0.072305,0.146607,-0.870320
1980-01-06T00:26:23.075004656Z,-1.576582,-0.142455,10.164883,-0.111853,0.042611,-0.866059
1980-01-06T00:26:23.114778719Z,-1.830367,-0.256180,10.198401,-0.064182,0.053396,-0.969390
1980-01-06T00:26:23.134615385Z,-1.904588,-0.494403,10.251074,-0.053929,0.016378,-0.981108
1980-01-06T00:26:23.154492677Z,-1.981202,-0.761356,10.423456,-0.075634,-0.013715,-0.994956
1980-01-06T00:26:23.174379448Z,-1.849521,-0.529119,10.619781,-0.075234,0.006525,-1.034371
1980-01-06T00:26:23.194224916Z,-2.069787,-0.656011,10.667665,0.029028,-0.014781,-1.036501
1980-01-06T00:26:23.214118093Z,-2.011129,-0.930147,10.614992,0.062318,0.016378,-1.031175
1980-01-06T00:26:23.273724760Z,-1.898602,-0.489614,10.739491,0.136221,0.111720,-1.050350
1980-01-06T00:26:23.293569500Z,-2.042254,-0.520739,10.658088,0.177766,-0.006525,-1.049285
1980-01-06T00:26:23.313470906Z,-2.278083,-0.579397,10.639533,0.199071,-0.086153,-1.040230
1980-01-06T00:26:23.333310906Z,-2.433706,-0.520739,10.692205,0.198272,-0.091346,-1.033838
1980-01-06T00:26:23.353183354Z,-2.578555,-0.457293,10.845434,0.225170,-0.137952,-0.995489
1980-01-06T00:26:23.373060698Z,-2.551022,-0.307655,10.831069,0.235823,-0.166447,-0.946487
1980-01-06T00:26:23.432689864Z,-2.509123,-0.226252,10.653898,0.369247,-0.166714,-0.859135
1980-01-06T00:26:23.452558145Z,-2.535460,-0.088585,10.572495,0.369913,-0.233692,-0.815459
1980-01-06T00:26:23.472431948Z,-2.724602,-0.057461,10.467151,0.435293,-0.274172,-0.770718
1980-01-06T00:26:23.492294552Z,-2.555810,-0.226252,10.606014,0.409328,-0.231695,-0.736630
1980-01-06T00:26:23.512236375Z,-2.443283,0.020351,10.577284,0.397610,-0.213718,-0.675910
1980-01-06T00:26:23.532045177Z,-2.281674,0.208296,10.538977,0.411858,-0.209457,-0.607733
1980-01-06T00:26:23.591665906Z,-2.363077,0.317232,10.361806,0.576574,-0.192546,-0.495880
1980-01-06T00:26:23.611561947Z,-2.308010,0.275333,10.395325,0.511726,-0.207993,-0.422377
1980-01-06T00:26:23.631407208Z,-2.232593,0.547075,10.639533,0.418116,-0.211055,-0.370179
1980-01-06T00:26:23.651258979Z,-2.191892,0.869095,10.783185,0.470181,-0.248073,-0.357396
1980-01-06T00:26:23.671122625Z,-2.268506,0.891840,10.926837,0.548877,-0.316916,-0.319046
1980-01-06T00:26:23.730722520Z,-2.858677,1.028310,10.874165,0.696416,-0.313853,-0.173105
1980-01-06T00:26:23.750588979Z,-2.938883,1.195904,10.735301,0.700278,-0.271110,-0.097472
1980-01-06T00:26:23.770486427Z,-2.770091,1.431733,10.926837,0.746750,-0.317182,-0.037817
1980-01-06T00:26:23.790328458Z,-2.797625,1.632846,10.921451,0.772716,-0.404001,0.023436
1980-01-06T00:26:23.810209864Z,-2.861071,1.927332,10.538378,0.786298,-0.446745,0.126766
1980-01-06T00:26:23.830078093Z,-2.859874,2.007538,10.241497,1.012000,-0.399208,0.201335
1980-01-06T00:26:23.889715489Z,-2.185906,1.898602,9.346066,0.907471,-0.135954,0.462324
1980-01-06T00:26:23.909566374Z,-2.019509,2.309207,9.307758,0.895221,-0.119043,0.519849
1980-01-06T00:26:23.929456687Z,-1.847127,2.523489,9.240721,0.930375,-0.096273,0.576308
1980-01-06T00:26:23.949291114Z,-1.838747,2.591723,9.096769,0.969656,-0.076433,0.627440
1980-01-06T00:26:23.969215541Z,-1.742979,2.713828,9.182961,0.943025,-0.054195,0.707335
1980-01-06T00:26:23.989145333Z,-1.628057,2.831144,9.058462,0.921852,0.015047,0.730771
1980-01-06T00:26:24.009010749Z,-1.393425,2.953248,8.852561,0.868057,0.057258,0.744619
1980-01-06T00:26:24.048878458Z,-1.191115,3.457227,8.680179,0.981108,-0.190549,0.907605
1980-01-06T00:26:24.068528822Z,-1.131260,3.209427,8.220491,0.789360,-0.058856,0.814927
1980-01-06T00:26:24.088406010Z,-1.272518,3.438074,7.961918,0.608265,0.037817,0.823449
1980-01-06T00:26:24.108311791Z,-1.108515,3.363853,7.569269,0.570582,0.037817,0.874581
1980-01-06T00:26:24.128134656Z,-1.043872,3.378219,7.516596,0.539556,0.080294,0.908670
1980-01-06T00:26:24.148002520Z,-0.834379,3.781641,7.425617,0.529835,0.054462,0.959802
1980-01-06T00:26:24.187760229Z,-0.544681,3.933673,6.831854,0.494682,0.099203,0.985369
1980-01-06T00:26:24.207655437Z,-0.357933,3.863045,6.396110,0.403735,0.131560,1.006674
1980-01-06T00:26:24.227484656Z,-0.173580,3.881001,6.372168,0.301336,0.155262,1.014131
1980-01-06T00:26:24.247565489Z,-0.009577,3.865439,6.305130,0.181627,0.132226,1.033306
1980-01-06T00:26:24.267281999Z,0.214281,3.732560,6.669049,0.082025,0.094942,1.052480
1980-01-06T00:26:24.287095645Z,0.237026,3.992331,7.004237,0.054595,0.053396,1.062068
1980-01-06T00:26:24.346708406Z,0.612916,3.598485,7.009026,0.090148,0.100268,1.035436
1980-01-06T00:26:24.366587676Z,0.781707,3.634398,7.042544,-0.015047,0.171641,1.042893
1980-01-06T00:26:24.386446322Z,0.804452,3.809175,6.975507,-0.020373,0.279898,0.997087
1980-01-06T00:26:24.406311010Z,0.951695,3.468001,7.224504,-0.061253,0.263386,1.000282
1980-01-06T00:26:24.426177468Z,0.998382,3.479972,7.507020,-0.124236,0.270843,0.990695
1980-01-06T00:26:24.446038353Z,1.053449,3.733757,7.487866,-0.160056,0.293613,0.997087
1980-01-06T00:26:24.485667208Z,1.276109,3.300407,7.588422,-0.152066,0.352336,0.945954
1980-01-06T00:26:24.505703405Z,1.318008,3.552995,7.670125,-0.241415,0.333028,0.940628
1980-01-06T00:26:24.525582572Z,0.981623,3.676297,7.722797,-0.281496,0.240883,0.945954
1980-01-06T00:26:24.545401791Z,0.724246,3.962404,7.478588,-0.315851,0.187353,0.957672
1980-01-06T00:26:24.565331947Z,0.958878,3.239355,7.445069,-0.348474,0.147273,0.970455
1980-01-06T00:26:24.585164395Z,1.064223,2.893393,7.842507,-0.524509,0.168045,1.029045
1980-01-06T00:26:24.605035489Z,1.201889,2.922123,8.182484,-0.544616,0.305731,1.066329
1980-01-06T00:26:24.644759603Z,1.681927,2.613271,8.484153,-0.507332,0.419448,0.990695
1980-01-06T00:26:24.664654187Z,1.798046,2.390610,8.484153,-0.493750,0.325039,0.950215
1980-01-06T00:26:24.684535228Z,1.747767,2.181118,8.239944,-0.453403,0.293081,0.852211
1980-01-06T00:26:24.704422520Z,1.728614,1.787272,8.134600,-0.474974,0.235823,0.807470
1980-01-06T00:26:24.724264551Z,1.843535,1.571793,8.407538,-0.585895,0.257794,0.773381
1980-01-06T00:26:24.744134916Z,1.868674,2.018312,8.761880,-0.654338,0.347276,0.762729
1980-01-06T00:26:24.764018041Z,1.850718,1.974019,8.843284,-0.539290,0.473376,0.709466
1980-01-06T00:26:24.803780228Z,2.045845,1.642422,9.264663,-0.559796,0.438755,0.632767
1980-01-06T00:26:24.823620905Z,1.741782,1.750161,8.958205,-0.479768,0.495214,0.521979
1980-01-06T00:26:24.843450905Z,1.684321,1.080982,8.828918,-0.454468,0.510261,0.432497
1980-01-06T00:26:24.863350749Z,1.792060,0.660800,9.341277,-0.590023,0.332096,0.436758
1980-01-06T00:26:24.883211947Z,1.628057,1.073799,9.508871,-0.650743,0.340884,0.407996
1980-01-06T00:26:24.903080020Z,1.577779,1.309628,9.666888,-0.543950,0.494948,0.355798
1980-01-06T00:26:24.962799239Z,1.483208,0.775721,9.331700,-0.436625,0.651542,0.188552
1980-01-06T00:26:24.982568666Z,1.345541,0.773327,9.264663,-0.427970,0.666988,0.045806
1980-01-06T00:26:25.002413301Z,1.273715,0.526724,9.379584,-0.444215,0.457797,0.008522
1980-01-06T00:26:25.022299343Z,1.052252,0.741005,9.446622,-0.506400,0.357263,-0.063916
1980-01-06T00:26:25.042151999Z,0.930147,0.986411,9.475352,-0.464854,0.336357,-0.107592
1980-01-06T00:26:25.062062728Z,0.803255,0.919373,9.671677,-0.365385,0.343681,-0.126766
1980-01-06T00:26:25.121619134Z,0.509965,0.416591,9.384373,-0.294679,0.248606,-0.322775
1980-01-06T00:26:25.141519968Z,0.598550,0.187945,9.958982,-0.418515,0.217580,-0.352602
1980-01-06T00:26:25.161412832Z,0.428562,0.245406,9.729137,-0.427836,0.210390,-0.409061
1980-01-06T00:26:25.181264082Z,0.227449,0.220267,9.642946,-0.379367,0.269112,-0.406931
1980-01-06T00:26:25.201157520Z,0.153229,0.080206,9.504083,-0.296676,0.364720,-0.418649
1980-01-06T00:26:25.221025124Z,0.226252,0.146046,9.690830,-0.354733,0.400672,-0.429301
1980-01-06T00:26:25.260758145Z,0.087388,0.204704,9.848848,-0.307329,0.438489,-0.574177
1980-01-06T00:26:25.280667989Z,-0.046687,-0.306458,10.021231,-0.201468,0.366983,-0.653007
1980-01-06T00:26:25.300515176Z,0.101754,-0.180762,10.116999,-0.258859,0.241682,-0.707335
1980-01-06T00:26:25.320419395Z,0.016759,0.074220,10.107422,-0.284559,0.102931,-0.757402
1980-01-06T00:26:25.340255593Z,-0.122104,-0.002394,10.174459,-0.288686,0.052065,-0.831971
1980-01-06T00:26:25.360091009Z,-0.086191,-0.367510,10.586262,-0.326903,-0.077498,-0.857537
1980-01-06T00:26:25.419727832Z,-0.003591,-0.223858,10.863990,-0.166847,-0.184956,-0.971520
1980-01-06T00:26:25.439568770Z,0.029928,-0.432153,10.974123,-0.186155,-0.147273,-0.999217
1980-01-06T00:26:25.459486218Z,0.057461,-0.375890,10.892720,-0.213852,-0.021305,-1.095091
1980-01-06T00:26:25.479368561Z,0.052672,-0.213084,10.701183,-0.201867,0.059522,-1.119592
1980-01-06T00:26:25.499208509Z,0.009577,-0.252588,10.581473,-0.156061,0.107858,-1.160072
1980-01-06T00:26:25.519288874Z,0.025139,-0.345962,10.691607,-0.094808,0.066579,-1.189899
1980-01-06T00:26:25.578652259Z,-0.341174,-0.365116,10.500071,0.080827,-0.103730,-1.290034
1980-01-06T00:26:25.598533978Z,-0.317232,-0.233435,10.528801,0.096939,-0.030626,-1.438106
1980-01-06T00:26:25.618407415Z,-0.685939,-0.180762,10.524013,0.162186,-0.186022,-1.430649
1980-01-06T00:26:25.638304082Z,-1.290475,-0.377087,10.840048,0.246209,-0.403602,-1.336906
1980-01-06T00:26:25.658309499Z,-1.471237,-0.019154,10.801741,0.256995,-0.444481,-1.258076
1980-01-06T00:26:25.678052988Z,-1.523909,0.489614,10.275016,0.305997,-0.336623,-1.223988
1980-01-06T00:26:25.717745332Z,-1.788469,-0.092177,10.284593,0.183891,-0.010386,-1.137701
1980-01-06T00:26:25.737632832Z,-1.723825,0.417788,10.275016,0.054994,-0.005060,-1.034371
1980-01-06T00:26:25.757543249Z,-1.497573,0.731429,10.030209,0.037684,-0.091746,-0.917725
1980-01-06T00:26:25.777351999Z,-1.322796,0.554258,9.996690,0.063516,-0.142080,-0.805872
1980-01-06T00:26:25.797249447Z,-1.256956,0.191536,9.996690,0.055261,-0.105195,-0.787762
1980-01-06T00:26:25.817096947Z,-1.211466,0.269348,9.934441,0.013183,-0.127033,-0.701476
1980-01-06T00:26:25.876726113Z,-0.739808,0.275333,9.537004,0.001997,-0.080161,-0.502272
1980-01-06T00:26:25.896596530Z,-0.575805,0.057461,9.580099,-0.013449,-0.017976,-0.553404
1980-01-06T00:26:25.916457311Z,-0.560243,-0.023942,9.711780,-0.046472,-0.098404,-0.515454
1980-01-06T00:26:25.936316165Z,-0.723049,0.216675,9.999084,-0.048203,-0.145941,-0.468583
1980-01-06T00:26:25.956192155Z,-0.658405,0.228646,9.841066,0.027963,-0.099735,-0.516520
1980-01-06T00:26:25.976063717Z,-0.796072,0.184354,9.812336,0.116646,-0.121973,-0.511193
1980-01-06T00:26:26.035691217Z,-1.180341,0.016759,9.908105,-0.001198,-0.179097,-0.314120
1980-01-06T00:26:26.055515540Z,-0.761356,0.100556,9.740510,-0.130228,-0.170975,-0.245943
1980-01-06T00:26:26.075425280Z,-0.666785,0.292093,9.721356,-0.086553,-0.177366,-0.221442
1980-01-06T00:26:26.095295905Z,-0.640449,0.235829,9.884163,-0.051399,-0.181228,-0.143677
1980-01-06T00:26:26.115152415Z,-0.848745,1.808819,12.991837,-1.142761,-0.282428,0.265384
1980-01-06T00:26:26.135026322Z,-0.169988,-0.590171,9.946412,0.218912,-0.044342,0.089615
1980-01-06T00:26:26.174762936Z,0.168791,0.152032,9.702203,0.004527,-0.018509,-0.004128
1980-01-06T00:26:26.194654499Z,0.007183,0.022745,9.711780,-0.163385,-0.009721,0.007590
1980-01-06T00:26:26.214497363Z,0.123301,-0.183156,9.860220,-0.188685,0.016378,0.035287
1980-01-06T00:26:26.234364134Z,0.023942,-0.114922,9.932047,-0.142745,0.013183,0.002264
1980-01-06T00:26:26.254257311Z,0.055067,-0.338780,9.548974,-0.070973,0.003995,-0.008389
1980-01-06T00:26:26.274348249Z,-0.045490,-0.152032,9.783606,-0.075900,-0.002131,-0.016911
1980-01-06T00:26:26.333720540Z,0.064643,-0.423774,9.589676,0.031425,-0.008389,-0.027164
1980-01-06T00:26:26.353562728Z,0.065841,-0.167594,9.781212,0.091613,-0.010519,-0.019707
1980-01-06T00:26:26.373471634Z,0.008380,-0.162806,9.723751,0.001065,-0.012650,-0.011185
1980-01-06T00:26:26.393342103Z,0.023942,-0.187945,9.733328,0.000399,-0.008389,-0.015446
1980-01-06T00:26:26.413226530Z,-0.017957,-0.199916,9.747693,0.000133,-0.008788,-0.014381
1980-01-06T00:26:26.433063092Z,0.028730,-0.193930,9.738116,-0.000133,-0.007856,-0.014381
1980-01-06T00:26:26.453074394Z,-0.007183,-0.209493,9.733328,-0.001065,-0.008256,-0.014381
1980-01-06T00:26:26.492750488Z,-0.008380,-0.229843,9.733328,-0.000533,-0.007856,-0.014381
1980-01-06T00:26:26.512561738Z,-0.001197,-0.203507,9.733328,-0.000399,-0.008522,-0.015446
1980-01-06T00:26:26.532340592Z,0.019154,-0.214281,9.690232,-0.001065,-0.008256,-0.015446
1980-01-06T00:26:26.552295123Z,-0.005986,-0.229843,9.632771,0.000932,-0.009321,-0.014381
1980-01-06T00:26:26.572161738Z,0.043096,-0.199916,9.699809,0.000666,-0.008788,-0.014381
1980-01-06T00:26:26.592052728Z,-0.003591,-0.210690,9.742905,-0.000666,-0.009587,-0.015446
1980-01-06T00:26:26.631761113Z,0.007183,-0.226252,9.748292,-0.001598,-0.008922,-0.013848
1980-01-06T00:26:26.651671217Z,-0.020351,-0.220267,9.551967,-0.000266,-0.009587,-0.014914
