timestamp,accel_x,accel_y,accel_z,gyro_x,gyro_y,gyro_z
1980-01-06T00:04:49.241289108Z,-0.007183,-0.319626,9.738416,0.000000,0.000000,-0.000133
1980-01-06T00:04:49.261316295Z,-0.021548,-0.114922,9.867702,0.005459,0.152333,0.375905
1980-01-06T00:04:49.281171452Z,-0.010774,-0.146046,9.734824,0.012251,-0.008522,0.002663
1980-01-06T00:04:49.301149264Z,-0.002394,-0.312443,9.672575,-0.003329,-0.008655,-0.014381
1980-01-06T00:04:49.321061764Z,0.002394,-0.173580,9.768343,-0.015979,-0.006924,-0.014381
1980-01-06T00:04:49.340758900Z,0.020351,-0.120907,9.731532,0.005992,-0.008256,-0.014381
1980-01-06T00:04:49.360623066Z,0.005986,-0.227449,9.715671,0.006791,-0.008788,-0.014381
1980-01-06T00:04:49.380489525Z,-0.014365,-0.178368,9.726744,-0.010786,-0.007989,-0.014381
1980-01-06T00:04:49.400523222Z,0.009577,-0.114922,9.721955,-0.004261,-0.007457,-0.015446
1980-01-06T00:04:49.420186191Z,0.023942,-0.191536,9.726744,0.005992,-0.008123,-0.014381
1980-01-06T00:04:49.440096712Z,0.031125,-0.238223,9.736320,-0.003329,-0.008256,-0.014381
1980-01-06T00:04:49.479816972Z,-0.004788,-0.149638,9.745897,-0.000666,-0.007723,-0.013316
1980-01-06T00:04:49.499691712Z,-0.022745,-0.180762,9.741109,0.000932,-0.008522,-0.015446
1980-01-06T00:04:49.519415514Z,0.010774,-0.180762,9.741109,-0.004661,-0.008256,-0.014381
1980-01-06T00:04:49.539417441Z,0.033519,-0.162806,9.741109,-0.003196,-0.008123,-0.014381
1980-01-06T00:04:49.559313899Z,0.031125,-0.168791,9.726744,-0.000932,-0.009321,-0.014381
1980-01-06T00:04:49.579172649Z,0.037110,-0.175974,9.736320,-0.001598,-0.008123,-0.014381
1980-01-06T00:04:49.599172181Z,-0.002394,-0.169988,9.731532,-0.002929,-0.008522,-0.014381
1980-01-06T00:04:49.618879420Z,0.010774,-0.173580,9.733028,-0.002929,-0.008389,-0.014381
1980-01-06T00:04:49.638797129Z,0.035913,-0.169988,9.723452,-0.003063,-0.007989,-0.014381
1980-01-06T00:04:49.658617337Z,0.035913,-0.179565,9.728240,-0.003063,-0.008123,-0.014381
1980-01-06T00:04:49.678484420Z,0.033519,-0.171185,9.715671,-0.002264,-0.007457,-0.014381
1980-01-06T00:04:49.698430983Z,0.022745,-0.164003,9.734824,-0.003063,-0.009321,-0.015446
1980-01-06T00:04:49.718217701Z,0.002394,-0.162806,9.738416,-0.003462,-0.007989,-0.013848
1980-01-06T00:04:49.738131608Z,0.038307,-0.161609,9.733627,-0.003862,-0.008256,-0.013848
1980-01-06T00:04:49.757996920Z,0.031125,-0.179565,9.733627,-0.001332,-0.008256,-0.013848
1980-01-06T00:04:49.777813431Z,0.038307,-0.171185,9.730036,-0.002397,-0.008123,-0.014381
1980-01-06T00:04:49.797877597Z,0.002394,-0.165200,9.744401,-0.002929,-0.008522,-0.015446
1980-01-06T00:04:49.817553170Z,0.019154,-0.156820,9.734824,-0.002929,-0.007723,-0.014381
1980-01-06T00:04:49.837476712Z,0.028730,-0.164003,9.739613,-0.003862,-0.008256,-0.014381
1980-01-06T00:04:49.857296920Z,0.009577,-0.168791,9.741109,-0.002929,-0.009321,-0.013848
1980-01-06T00:04:49.877194785Z,0.008380,-0.191536,9.736320,-0.000932,-0.008788,-0.013848
1980-01-06T00:04:49.897057962Z,0.035913,-0.187945,9.731532,-0.002530,-0.007590,-0.013848
1980-01-06T00:04:49.916936764Z,0.007183,-0.162806,9.744401,-0.001598,-0.008788,-0.014381
1980-01-06T00:04:49.936814524Z,0.028730,-0.156820,9.744401,-0.001465,-0.008389,-0.015446
1980-01-06T00:04:49.956698795Z,0.014365,-0.162806,9.739613,-0.002530,-0.008788,-0.014381
1980-01-06T00:04:49.976555253Z,0.033519,-0.178368,9.726744,-0.002397,-0.008123,-0.014381
1980-01-06T00:04:49.996546816Z,0.005986,-0.181959,9.741109,-0.002397,-0.007856,-0.014381
1980-01-06T00:04:50.016297233Z,0.033519,-0.165200,9.750686,-0.003063,-0.008389,-0.015446
1980-01-06T00:04:50.036158743Z,0.010774,-0.160412,9.755474,-0.001864,-0.009587,-0.015446
1980-01-06T00:04:50.075861139Z,0.037110,-0.150835,9.732430,-0.001864,-0.008123,-0.013848
1980-01-06T00:04:50.095757649Z,0.005986,-0.120907,9.775525,-0.037950,-0.009454,-0.004261
1980-01-06T00:04:50.115597337Z,-0.019154,-0.041899,9.799467,-0.009454,-0.015446,-0.009587
1980-01-06T00:04:50.135658847Z,0.029928,-0.214281,9.718064,-0.016778,-0.010120,-0.011718
1980-01-06T00:04:50.155375462Z,0.053870,0.094571,9.847352,-0.020773,-0.006392,-0.020240
1980-01-06T00:04:50.175231555Z,-0.026336,-0.141258,9.766248,-0.012916,-0.003862,-0.020773
1980-01-06T00:04:50.195195149Z,0.013168,-0.134075,9.732729,-0.025566,-0.009721,-0.019707
1980-01-06T00:04:50.214844993Z,0.014365,-0.276530,9.718364,-0.002663,-0.012783,-0.023968
1980-01-06T00:04:50.234814837Z,0.043096,-0.175974,9.699210,-0.005060,-0.009321,-0.011185
1980-01-06T00:04:50.254732545Z,0.062249,-0.189142,9.747094,0.002530,-0.005593,-0.010120
1980-01-06T00:04:50.274574837Z,0.025139,-0.241814,9.727641,0.007057,0.001065,-0.009587
1980-01-06T00:04:50.294459576Z,0.013168,-0.160412,9.751583,0.005859,-0.003728,-0.009587
1980-01-06T00:04:50.314296399Z,0.033519,-0.189142,9.727641,0.006924,-0.006392,-0.009587
1980-01-06T00:04:50.334174889Z,-0.026336,-0.191536,9.751583,0.003995,-0.012783,-0.009587
1980-01-06T00:04:50.354086607Z,-0.014365,-0.132878,9.742006,0.005726,-0.017177,-0.007457
1980-01-06T00:04:50.373881035Z,0.038307,-0.101754,9.765948,-0.017177,-0.004794,-0.011718
1980-01-06T00:04:50.393779524Z,0.059855,-0.124498,9.732430,-0.028895,0.001465,-0.021305
1980-01-06T00:04:50.413657389Z,0.016759,-0.196325,9.674969,-0.017843,0.001864,-0.019175
1980-01-06T00:04:50.433524212Z,-0.011971,-0.038307,9.871294,0.014381,-0.008389,-0.017044
1980-01-06T00:04:50.453408743Z,0.044293,-0.136469,9.679757,-0.009188,-0.009321,-0.010653
1980-01-06T00:04:50.473233587Z,-0.014365,-0.219069,9.684546,-0.002663,-0.009188,-0.012783
1980-01-06T00:04:50.493154316Z,0.008380,-0.266953,9.698911,-0.000266,-0.008256,-0.013848
1980-01-06T00:04:50.532856660Z,0.023942,-0.187945,9.708488,-0.000533,-0.009587,-0.014914
1980-01-06T00:04:50.552764420Z,0.209493,-0.022745,9.838673,-0.064182,0.029961,-0.012783
1980-01-06T00:04:50.572550462Z,-0.083797,-0.460884,9.656115,-0.083623,0.013049,0.014381
1980-01-06T00:04:50.592494680Z,-0.043096,-0.174777,9.761459,0.016245,-0.023303,-0.016512
1980-01-06T00:04:50.612443534Z,0.069432,-0.153229,9.856929,-0.001598,-0.027431,-0.011718
1980-01-06T00:04:50.632165930Z,0.049081,-0.086191,9.837775,-0.034088,-0.006125,-0.000000
1980-01-06T00:04:50.652106243Z,-0.007183,-0.378284,9.703699,-0.054861,0.005992,0.017044
1980-01-06T00:04:50.671931034Z,0.068235,-0.217872,9.722853,-0.026765,-0.003196,0.004261
1980-01-06T00:04:50.691824055Z,-0.005986,-0.268151,9.765948,-0.060986,-0.009854,0.022371
1980-01-06T00:04:50.711566555Z,0.049081,-0.204704,9.795877,-0.089216,-0.021971,0.028762
1980-01-06T00:04:50.731564159Z,0.140061,-0.257377,9.896433,-0.162586,-0.009987,0.066046
1980-01-06T00:04:50.751475566Z,0.039504,-0.438139,9.725247,-0.179763,0.000266,0.085754
1980-01-06T00:04:50.771403847Z,0.069432,-0.347159,9.945514,-0.200669,-0.019841,0.088950
1980-01-06T00:04:50.791158586Z,0.158017,-0.375890,10.060435,-0.301203,-0.048869,0.086819
1980-01-06T00:04:50.811051659Z,0.152032,-0.337582,10.063727,-0.299206,-0.092678,0.082025
1980-01-06T00:04:50.830883586Z,0.201113,-0.466869,10.068516,-0.209724,-0.166847,0.078829
1980-01-06T00:04:50.850794576Z,0.324414,-0.727837,10.426748,-0.154996,-0.237820,0.047937
1980-01-06T00:04:50.870594993Z,0.257377,-0.744597,10.488997,-0.157925,-0.275104,0.052198
1980-01-06T00:04:50.890484107Z,0.134075,-0.754174,10.374076,-0.172972,-0.240883,0.057524
1980-01-06T00:04:50.910332389Z,0.086191,-0.593762,10.378864,-0.163118,-0.164716,0.069242
1980-01-06T00:04:50.930274941Z,0.227449,-0.730232,10.407595,-0.134623,-0.032357,0.050067
1980-01-06T00:04:50.950145878Z,0.158017,-0.835576,10.063129,-0.144610,-0.062451,0.076166
1980-01-06T00:04:50.969926139Z,0.183156,-0.912191,9.952995,-0.192813,-0.131161,0.079362
1980-01-06T00:04:50.989848482Z,0.156820,-0.809240,10.034399,-0.292681,-0.198805,0.123038
1980-01-06T00:04:51.009676868Z,0.038307,-0.653617,9.847651,-0.312389,-0.235556,0.145408
1980-01-06T00:04:51.029741920Z,-0.002394,-0.721852,9.957784,-0.241815,-0.259658,0.169910
1980-01-06T00:04:51.049450930Z,0.227449,-0.756568,10.163686,-0.156727,-0.244611,0.151800
1980-01-06T00:04:51.069324941Z,0.160412,-0.833182,9.929053,-0.104396,-0.321310,0.172040
1980-01-06T00:04:51.089183118Z,0.233435,-0.858321,9.809343,-0.101466,-0.270976,0.205063
1980-01-06T00:04:51.109053274Z,0.460884,-0.786495,9.900323,-0.074568,-0.162186,0.196541
1980-01-06T00:04:51.128915253Z,0.658405,-0.762553,10.048764,-0.040347,-0.185489,0.182693
1980-01-06T00:04:51.148753951Z,0.687136,-0.895431,9.762358,-0.063117,-0.322109,0.185356
1980-01-06T00:04:51.168622701Z,0.647632,-1.048660,9.657013,-0.077897,-0.368847,0.178964
1980-01-06T00:04:51.188519368Z,0.573411,-0.931344,9.747993,-0.063250,-0.291882,0.148072
1980-01-06T00:04:51.208418534Z,0.452504,-1.024718,9.637859,-0.038749,-0.221708,0.138484
1980-01-06T00:04:51.228261138Z,0.367510,-1.114501,9.403227,-0.055527,-0.162186,0.161920
1980-01-06T00:04:51.248226451Z,0.374693,-1.131260,9.604341,-0.076965,-0.107991,0.174703
1980-01-06T00:04:51.268078586Z,0.575805,-1.027112,9.642648,-0.082558,-0.140348,0.170442
1980-01-06T00:04:51.287890722Z,0.489614,-1.156399,9.240421,-0.081226,-0.225170,0.178964
1980-01-06T00:04:51.307776711Z,0.575805,-1.101333,9.552865,-0.096540,-0.253000,0.189084
1980-01-06T00:04:51.327648586Z,0.656011,-1.021127,9.682152,-0.049535,-0.260990,0.205063
1980-01-06T00:04:51.347511607Z,0.724246,-1.265336,9.351752,0.005193,-0.233026,0.192280
1980-01-06T00:04:51.367374576Z,0.827197,-1.353921,9.262269,0.019175,-0.210922,0.181095
1980-01-06T00:04:51.387390045Z,0.865504,-1.210269,9.420286,0.009188,-0.200802,0.175768
1980-01-06T00:04:51.407120878Z,1.004368,-1.053449,9.579500,0.062851,-0.198538,0.150735
1980-01-06T00:04:51.446852701Z,1.023521,-1.295263,9.383176,0.039148,-0.185356,0.134756
1980-01-06T00:04:51.466730774Z,1.074997,-1.260547,9.502886,-0.047271,-0.204131,0.168844
1980-01-06T00:04:51.486583951Z,1.080982,-1.140837,9.512463,-0.047804,-0.188552,0.184823
1980-01-06T00:04:51.506458742Z,1.209072,-1.164779,9.593865,-0.009321,-0.137685,0.189084
1980-01-06T00:04:51.526499055Z,1.187524,-1.029507,9.489120,0.043942,-0.095208,0.193878
1980-01-06T00:04:51.546190878Z,1.259350,-1.198298,9.497200,0.089882,-0.062451,0.178432
1980-01-06T00:04:51.566067805Z,1.252167,-1.139640,9.439739,0.061785,-0.085487,0.169910
1980-01-06T00:04:51.605797232Z,0.994791,-0.907402,9.396643,0.069242,-0.152599,0.206128
1980-01-06T00:04:51.625676711Z,1.048660,-0.975637,9.354445,0.068443,-0.065780,0.221042
1980-01-06T00:04:51.645524784Z,1.116895,-1.042675,9.378387,0.040746,-0.045806,0.243413
1980-01-06T00:04:51.665307753Z,1.143231,-0.961272,9.493309,0.027963,-0.137419,0.271110
1980-01-06T00:04:51.685165565Z,1.119289,-0.937330,9.407118,0.019707,-0.180695,0.270044
1980-01-06T00:04:51.705160513Z,1.121683,-0.873884,9.359234,0.023436,-0.183358,0.291350
1980-01-06T00:04:51.725029680Z,1.194707,-0.912191,9.344869,0.058989,-0.171774,0.298806
1980-01-06T00:04:51.744884784Z,1.165976,-1.005565,9.414001,0.050201,-0.168578,0.302002
1980-01-06T00:04:51.764755565Z,1.310825,-1.088165,9.476251,0.049002,-0.189750,0.311590
1980-01-06T00:04:51.784650253Z,1.386243,-1.077391,9.600749,0.034621,-0.171374,0.329699
1980-01-06T00:04:51.804484576Z,1.406593,-1.108515,9.399636,0.031292,-0.113451,0.336091
1980-01-06T00:04:51.824401399Z,1.533486,-1.286883,10.012551,0.019308,-0.107325,0.353135
1980-01-06T00:04:51.844242649Z,1.789666,-1.109712,9.311350,0.054994,-0.113584,0.300937
1980-01-06T00:04:51.864073482Z,1.677138,-1.203086,9.498097,0.042344,-0.178298,0.306263
1980-01-06T00:04:51.903845044Z,1.726219,-1.193510,9.459790,0.076566,-0.199870,0.242347
1980-01-06T00:04:51.923717024Z,1.736993,-1.137246,9.483732,0.091480,-0.128497,0.258326
1980-01-06T00:04:51.943588326Z,1.715446,-1.149217,9.367912,0.117578,-0.038083,0.254065
1980-01-06T00:04:51.963450044Z,1.697489,-1.031901,9.377489,0.089882,-0.020639,0.260457
1980-01-06T00:04:51.983331659Z,1.838747,-0.995988,9.363124,0.067511,-0.027697,0.249804
1980-01-06T00:04:52.003177909Z,1.703475,-1.000776,9.383176,0.042611,-0.048869,0.263653
1980-01-06T00:04:52.023062961Z,1.686715,-1.218649,9.531616,0.021172,-0.054195,0.261522
1980-01-06T00:04:52.042932128Z,1.739388,-1.092953,9.569923,0.004128,-0.038749,0.259392
1980-01-06T00:04:52.062800096Z,1.877054,-1.070208,9.593865,0.036485,-0.052065,0.246609
1980-01-06T00:04:52.082659471Z,1.687912,-1.060631,9.316138,0.014381,-0.086819,0.281762
1980-01-06T00:04:52.102535982Z,1.744176,-1.150414,9.584289,0.003063,-0.008922,0.256196
1980-01-06T00:04:52.122404888Z,1.862689,-1.078588,9.684845,-0.016378,-0.036618,0.244478
1980-01-06T00:04:52.142264055Z,1.758541,-1.124078,9.552865,0.033023,-0.092145,0.238086
1980-01-06T00:04:52.162133378Z,1.671153,-1.092953,9.428367,0.032757,-0.083357,0.230630
1980-01-06T00:04:52.182013169Z,1.709460,-1.150414,9.485827,0.049535,-0.045007,0.224238
1980-01-06T00:04:52.201870826Z,1.681927,-1.192312,9.394848,0.050334,-0.032890,0.221042
1980-01-06T00:04:52.221755669Z,1.675941,-1.143231,9.350554,0.024767,-0.037417,0.236489
1980-01-06T00:04:52.241626190Z,1.695095,-1.148020,9.427169,0.024767,-0.003595,0.238619
1980-01-06T00:04:52.261484784Z,1.768118,-1.192312,9.542090,0.064049,-0.010253,0.211987
1980-01-06T00:04:52.281356138Z,1.698686,-1.249773,9.441534,0.052464,-0.091613,0.199204
1980-01-06T00:04:52.301187388Z,1.632846,-1.194707,9.441534,0.011851,-0.089615,0.205596
1980-01-06T00:04:52.321106086Z,1.665167,-1.121683,9.647436,0.008123,-0.045407,0.211987
1980-01-06T00:04:52.360793534Z,1.685518,-1.203086,9.472060,0.025167,-0.068976,0.208792
1980-01-06T00:04:52.380841815Z,1.629254,-1.130063,9.381081,0.023569,-0.060187,0.208792
1980-01-06T00:04:52.400528690Z,1.710657,-1.001973,9.841965,0.015446,-0.028229,0.225303
1980-01-06T00:04:52.420288794Z,1.602918,-1.148020,9.276933,-0.003728,-0.039282,0.249804
1980-01-06T00:04:52.440178638Z,1.675941,-1.195904,9.564238,-0.028762,-0.012117,0.238086
1980-01-06T00:04:52.460167075Z,1.717840,-1.219846,9.746197,-0.040480,-0.080161,0.247674
1980-01-06T00:04:52.480013169Z,1.601721,-1.272518,9.636064,-0.015713,-0.089482,0.240217
1980-01-06T00:04:52.499875044Z,1.624466,-1.255759,9.736620,0.001864,-0.092678,0.254065
1980-01-06T00:04:52.519606190Z,1.671153,-1.261744,9.612122,0.009721,-0.094542,0.262587
1980-01-06T00:04:52.539617909Z,1.672350,-1.203086,9.580399,0.018509,-0.076433,0.259924
1980-01-06T00:04:52.559493013Z,1.673547,-1.209072,9.654918,0.022903,-0.073370,0.270044
1980-01-06T00:04:52.579510148Z,1.701080,-1.225831,9.592669,0.035021,-0.083889,0.263653
1980-01-06T00:04:52.599220148Z,1.747767,-1.188721,9.588180,0.022371,-0.106926,0.261522
1980-01-06T00:04:52.619101190Z,1.715446,-1.157596,9.645640,0.039415,-0.113051,0.275371
1980-01-06T00:04:52.658838221Z,1.826776,-1.218649,9.564238,0.086420,-0.102132,0.278566
1980-01-06T00:04:52.678712180Z,1.872266,-0.991199,10.210671,0.093477,-0.147406,0.256196
1980-01-06T00:04:52.698569159Z,2.123657,-1.383849,9.457097,0.068310,-0.158724,0.231695
1980-01-06T00:04:52.718459002Z,2.038663,-1.284489,9.610326,0.066712,-0.191614,0.227434
1980-01-06T00:04:52.738324732Z,2.002750,-1.291672,9.619903,0.088284,-0.156594,0.213585
1980-01-06T00:04:52.758178846Z,1.993173,-1.297657,9.554661,0.083357,-0.169377,0.231695
1980-01-06T00:04:52.778056502Z,2.037466,-1.203086,9.401431,0.078696,-0.123704,0.231695
1980-01-06T00:04:52.797921190Z,1.962048,-1.256956,9.345467,0.075234,-0.089083,0.240750
1980-01-06T00:04:52.817782909Z,1.942895,-1.242591,9.345766,0.029961,-0.074302,0.255663
1980-01-06T00:04:52.837631867Z,2.026692,-1.240196,9.318233,0.014781,-0.055793,0.275371
1980-01-06T00:04:52.857401242Z,2.069787,-1.207875,9.222465,-0.024102,-0.061918,0.286023
1980-01-06T00:04:52.877390200Z,2.047042,-1.329979,9.121908,-0.099735,-0.143145,0.304133
1980-01-06T00:04:52.897268690Z,1.820790,-1.088165,9.853337,-0.163518,-0.217713,0.333427
1980-01-06T00:04:52.917134367Z,2.172738,-1.273715,9.542090,-0.212387,-0.226235,0.290817
1980-01-06T00:04:52.937011034Z,2.164358,-1.380257,9.431957,-0.167513,-0.249139,0.294013
1980-01-06T00:04:52.956866711Z,2.252944,-1.510741,9.446322,-0.177633,-0.230230,0.290817
1980-01-06T00:04:52.976851138Z,2.387019,-1.484405,9.479841,-0.165915,-0.212121,0.291882
1980-01-06T00:04:52.996607596Z,2.487576,-1.660379,9.478644,-0.124370,-0.178432,0.250337
1980-01-06T00:04:53.016340304Z,2.483984,-1.728614,9.440337,-0.157526,-0.264718,0.222640
1980-01-06T00:04:53.036361242Z,2.497152,-1.674744,9.555259,-0.171108,-0.296410,0.188552
1980-01-06T00:04:53.056210409Z,2.462436,-1.644817,9.598354,-0.086686,-0.274705,0.166181
1980-01-06T00:04:53.076093846Z,2.367866,-1.760935,9.373300,-0.020373,-0.207460,0.161920
1980-01-06T00:04:53.115678586Z,2.279280,-1.857901,9.392453,-0.033689,-0.124103,0.174703
1980-01-06T00:04:53.135699211Z,2.296039,-1.781286,9.382876,-0.029961,-0.123038,0.165116
1980-01-06T00:04:53.155551867Z,2.402581,-1.687912,9.330204,-0.051532,-0.184557,0.162985
1980-01-06T00:04:53.175439054Z,2.451663,-1.692701,9.258378,-0.093876,-0.204264,0.185356
1980-01-06T00:04:53.195309106Z,2.501941,-1.752556,9.315839,-0.117312,-0.150202,0.203465
1980-01-06T00:04:53.215175773Z,2.698265,-1.704672,9.646238,-0.088417,-0.134223,0.207726
1980-01-06T00:04:53.235001294Z,2.849100,-1.900996,9.540894,-0.027697,-0.110255,0.170442
1980-01-06T00:04:53.254750721Z,2.995146,-1.910573,9.350554,-0.054062,-0.147938,0.117179
1980-01-06T00:04:53.274609627Z,2.908955,-1.893813,9.240421,-0.094409,-0.233293,0.069242
1980-01-06T00:04:53.294780669Z,2.784456,-1.983596,9.059659,-0.154197,-0.221442,0.051665
1980-01-06T00:04:53.314513221Z,2.602497,-1.991976,9.145850,-0.162320,-0.180828,0.037817
1980-01-06T00:04:53.334379940Z,2.574964,-1.850718,9.323022,-0.139550,-0.193745,0.061253
1980-01-06T00:04:53.354200461Z,2.574964,-1.975216,9.361329,-0.056059,-0.184956,0.072971
1980-01-06T00:04:53.374132023Z,2.627636,-2.070984,9.255983,0.001598,-0.184690,0.085754
1980-01-06T00:04:53.394063065Z,2.746149,-2.140416,8.963891,-0.030360,-0.202001,0.118777
1980-01-06T00:04:53.413872335Z,2.798822,-1.968034,9.074024,-0.104396,-0.188285,0.150735
1980-01-06T00:04:53.433579054Z,2.858677,-2.002750,9.423578,-0.088417,-0.142479,0.162453
1980-01-06T00:04:53.453598429Z,2.930503,-2.090138,9.612720,0.007723,-0.139283,0.126766
1980-01-06T00:04:53.473472388Z,2.862268,-2.205060,9.555259,0.028096,-0.209724,0.105461
1980-01-06T00:04:53.493340773Z,2.710236,-2.098518,9.540894,0.075501,-0.186554,0.126766
1980-01-06T00:04:53.513212960Z,2.710236,-2.165555,9.340678,0.069508,-0.091613,0.184291
1980-01-06T00:04:53.532888065Z,2.760514,-2.051831,9.206005,0.047005,-0.044208,0.223173
1980-01-06T00:04:53.552945252Z,2.828749,-2.064999,9.119814,-0.000799,-0.077631,0.235956
1980-01-06T00:04:53.572819679Z,2.835932,-2.099715,9.057565,-0.039548,-0.114782,0.229564
1980-01-06T00:04:53.592679783Z,2.965219,-2.047042,9.095872,-0.060720,-0.156461,0.200802
1980-01-06T00:04:53.612590408Z,2.984372,-2.066196,8.976161,-0.026898,-0.175236,0.142213
1980-01-06T00:04:53.632227335Z,2.975993,-2.268506,8.990228,-0.111054,-0.168844,0.105461
1980-01-06T00:04:53.652314731Z,2.851494,-2.017115,8.750807,-0.119709,-0.152333,0.133158
1980-01-06T00:04:53.672089367Z,2.691083,-2.014721,8.688558,-0.102665,-0.021971,0.170442
1980-01-06T00:04:53.711782648Z,3.101688,-2.250550,9.058462,-0.076300,-0.039415,0.147006
1980-01-06T00:04:53.731781658Z,2.999935,-2.305616,9.178172,-0.000399,-0.246342,0.096939
1980-01-06T00:04:53.751552596Z,2.871845,-2.310405,8.948329,0.008522,-0.291882,0.083091
1980-01-06T00:04:53.771538794Z,2.926912,-2.200271,8.900445,0.039814,-0.133824,0.085221
1980-01-06T00:04:53.791377127Z,2.949656,-2.172738,8.943541,0.061918,-0.009188,0.166181
1980-01-06T00:04:53.811307127Z,2.967613,-2.212242,9.009381,0.091746,0.085354,0.221575
1980-01-06T00:04:53.831101971Z,3.033453,-2.284068,9.085996,0.111320,0.049934,0.230097
1980-01-06T00:04:53.850820512Z,3.123236,-2.395399,9.200917,0.113451,-0.034887,0.181095
1980-01-06T00:04:53.870733742Z,3.107674,-2.334347,9.210494,0.123837,-0.138218,0.109722
1980-01-06T00:04:53.890711137Z,3.021482,-2.446874,8.985439,0.107059,-0.213585,0.079895
1980-01-06T00:04:53.910592075Z,3.041833,-2.317587,9.009381,0.074169,-0.151401,0.098004
1980-01-06T00:04:53.930493429Z,3.034651,-2.196680,9.004593,0.079628,-0.111187,0.156594
1980-01-06T00:04:53.950351554Z,3.147178,-2.207454,9.038411,0.078963,-0.023303,0.189084
1980-01-06T00:04:53.970195252Z,3.258508,-2.161964,9.148544,0.092145,0.025699,0.209324
1980-01-06T00:04:53.990062179Z,3.248932,-2.309207,9.216479,0.137286,0.011318,0.197074
1980-01-06T00:04:54.049667491Z,3.294421,-2.169147,9.040505,0.152066,-0.041812,0.077232
1980-01-06T00:04:54.069529002Z,3.189077,-2.256535,8.992621,0.115847,-0.077365,0.054861
1980-01-06T00:04:54.089434210Z,3.199851,-2.098518,9.177873,0.103863,-0.063783,0.031958
1980-01-06T00:04:54.109289002Z,3.139996,-2.124854,9.129391,0.152066,-0.072837,0.014381
1980-01-06T00:04:54.129294314Z,3.138798,-2.178724,8.885181,0.185356,-0.039415,-0.006924
1980-01-06T00:04:54.149004835Z,3.177106,-2.069787,8.846874,0.154197,-0.034355,-0.006924
1980-01-06T00:04:54.168887544Z,3.214216,-2.017115,8.942642,0.151933,-0.041279,-0.011185
1980-01-06T00:04:54.188744366Z,3.093309,-2.073379,8.735544,0.103996,-0.060853,-0.019707
1980-01-06T00:04:54.208645148Z,3.136404,-2.018312,8.903138,0.069242,-0.048070,-0.025034
1980-01-06T00:04:54.228530929Z,3.148375,-1.948880,9.005490,0.078297,-0.064182,-0.037284
1980-01-06T00:04:54.248347700Z,3.141193,-2.079364,9.091681,0.134889,-0.062185,-0.061785
1980-01-06T00:04:54.268224210Z,3.201048,-2.102109,8.919299,0.128764,-0.049668,-0.093743
1980-01-06T00:04:54.288083377Z,3.298013,-1.911770,9.000702,0.115048,-0.077232,-0.115048
1980-01-06T00:04:54.308103012Z,3.284845,-1.898602,8.952818,0.155395,-0.133025,-0.142745
1980-01-06T00:04:54.327845408Z,3.132813,-1.896208,8.948030,0.152998,-0.138617,-0.153398
1980-01-06T00:04:54.347699835Z,3.047819,-1.780089,9.145850,0.156194,-0.111986,-0.134756
1980-01-06T00:04:54.367571033Z,2.998738,-1.796848,8.997410,0.199337,-0.012650,-0.101733
1980-01-06T00:04:54.387441450Z,3.171120,-1.709460,8.906430,0.203732,0.067644,-0.067644
1980-01-06T00:04:54.407319158Z,3.144784,-1.736993,8.944737,0.174836,0.074702,-0.028229
1980-01-06T00:04:54.427171918Z,3.238158,-1.699883,8.961497,0.169510,0.109323,-0.027697
1980-01-06T00:04:54.446875564Z,3.342306,-1.656788,8.985439,0.177233,0.101067,-0.047937
1980-01-06T00:04:54.466956762Z,3.329138,-1.583764,8.942344,0.187353,0.045141,-0.079895
1980-01-06T00:04:54.486605304Z,3.272874,-1.583764,8.951921,0.196941,0.028229,-0.131027
1980-01-06T00:04:54.506609523Z,3.298013,-1.582567,8.913613,0.192280,0.041013,-0.177899
1980-01-06T00:04:54.526482908Z,3.226187,-1.416170,8.880095,0.177633,-0.013582,-0.203465
1980-01-06T00:04:54.546335512Z,3.117251,-1.371878,8.913613,0.148871,-0.044475,-0.232227
1980-01-06T00:04:54.566228533Z,3.040636,-1.392228,8.923190,0.143544,-0.081626,-0.239684
1980-01-06T00:04:54.586093898Z,2.998738,-1.371878,8.942344,0.145408,-0.048469,-0.229032
1980-01-06T00:04:54.605945720Z,2.922123,-1.284489,8.856153,0.138751,-0.023436,-0.181095
1980-01-06T00:04:54.625863064Z,3.025074,-1.194707,8.863335,0.108657,0.041412,-0.142213
1980-01-06T00:04:54.645750148Z,3.197456,-1.209072,8.944737,0.067777,0.061652,-0.114516
1980-01-06T00:04:54.665572127Z,3.408146,-1.212663,9.006987,0.047138,0.080960,-0.131560
1980-01-06T00:04:54.685439158Z,3.554192,-1.233014,9.093178,0.055793,0.076033,-0.154996
1980-01-06T00:04:54.705335772Z,3.632004,-1.353921,9.036316,0.068310,0.118511,-0.183225
1980-01-06T00:04:54.725178377Z,3.588908,-1.247379,9.120711,0.071506,0.142878,-0.220510
1980-01-06T00:04:54.745059158Z,3.523068,-1.435324,9.130288,0.055793,0.137020,-0.269512
1980-01-06T00:04:54.764924679Z,3.414132,-1.487996,9.096769,0.024368,0.107059,-0.316383
1980-01-06T00:04:54.784787439Z,3.216610,-1.446098,9.061455,-0.055127,0.108391,-0.296676
1980-01-06T00:04:54.804648689Z,3.138798,-1.298854,9.133281,-0.080161,0.150335,-0.255131
1980-01-06T00:04:54.824529835Z,3.118448,-1.229423,9.104550,-0.073636,0.222906,-0.210390
1980-01-06T00:04:54.844409783Z,3.197456,-1.194707,9.463681,-0.032491,0.233692,-0.212520
1980-01-06T00:04:54.864282439Z,3.172317,-1.393425,9.372701,0.047537,0.153931,-0.277501
1980-01-06T00:04:54.903920095Z,2.932897,-1.143231,9.155427,0.127565,-0.064182,-0.386158
1980-01-06T00:04:54.923878220Z,2.861071,-0.972046,8.905233,0.177766,0.030493,-0.380299
1980-01-06T00:04:54.943619054Z,2.984372,-0.858321,8.802881,0.207194,0.181361,-0.340352
1980-01-06T00:04:54.963539679Z,3.159149,-0.667982,8.989629,0.237554,0.281496,-0.304133
1980-01-06T00:04:54.983502491Z,3.210624,-0.907402,9.094974,0.332362,0.266849,-0.333960
1980-01-06T00:04:55.003386137Z,3.021482,-0.986411,8.927380,0.381098,0.200270,-0.384028
1980-01-06T00:04:55.023283064Z,2.877831,-0.718261,9.027936,0.375505,0.201202,-0.439421
1980-01-06T00:04:55.043106189Z,2.816778,-0.509965,9.091981,0.402670,0.195875,-0.458063
1980-01-06T00:04:55.062829887Z,2.703054,-0.331597,8.991425,0.449674,0.276569,-0.466585
1980-01-06T00:04:55.082861710Z,2.618060,-0.253785,8.876503,0.449142,0.328234,-0.442084
1980-01-06T00:04:55.102879418Z,2.566584,-0.201113,8.922591,0.391484,0.328501,-0.450074
1980-01-06T00:04:55.122556970Z,2.389413,-0.146046,8.963891,0.333161,0.223572,-0.449009
1980-01-06T00:04:55.142467908Z,2.170344,0.022745,8.925584,0.299605,0.208658,-0.449009
1980-01-06T00:04:55.162389835Z,2.193089,0.225055,9.035717,0.304399,0.211721,-0.441552
1980-01-06T00:04:55.182199054Z,2.128445,0.215478,9.054871,0.270177,0.164716,-0.405333
1980-01-06T00:04:55.202084418Z,2.136825,0.241814,9.249998,0.223972,0.181494,-0.393082
1980-01-06T00:04:55.241666658Z,2.041057,0.470461,9.283517,0.266183,0.067644,-0.405865
1980-01-06T00:04:55.261560876Z,2.017115,0.446519,9.192537,0.265916,0.054728,-0.396278
1980-01-06T00:04:55.281523116Z,1.994370,0.509965,9.331401,0.241415,0.057657,-0.349406
1980-01-06T00:04:55.301396449Z,2.053028,0.612916,9.197026,0.234092,0.137818,-0.340884
1980-01-06T00:04:55.321313272Z,2.111686,0.754174,9.288006,0.211987,0.179097,-0.321710
1980-01-06T00:04:55.341149731Z,2.037466,0.875081,9.417294,0.194277,0.181761,-0.300404
1980-01-06T00:04:55.380852491Z,2.013524,0.841562,9.417294,0.204930,0.133557,-0.267381
1980-01-06T00:04:55.400743116Z,2.041057,0.897826,9.489418,0.216914,0.137153,-0.309992
1980-01-06T00:04:55.420633949Z,2.018312,0.930147,9.524135,0.213319,0.070973,-0.341417
1980-01-06T00:04:55.440466085Z,1.942895,0.931344,9.422380,0.175902,0.026898,-0.367516
1980-01-06T00:04:55.460333897Z,1.922544,0.954089,9.446322,0.119709,0.010919,-0.371777
1980-01-06T00:04:55.480247595Z,1.854309,1.034295,9.548077,0.108657,0.006924,-0.344613
1980-01-06T00:04:55.500083428Z,1.811214,1.055843,9.615114,0.127166,0.042078,-0.324373
1980-01-06T00:04:55.519789470Z,1.866280,1.004368,9.642648,0.145142,0.093077,-0.322775
1980-01-06T00:04:55.539817856Z,1.964442,1.065420,9.618706,0.163518,0.100268,-0.331297
1980-01-06T00:04:55.559613116Z,1.899799,1.054646,9.441534,0.174037,0.054062,-0.347276
1980-01-06T00:04:55.579556658Z,1.780089,1.120486,9.364920,0.152066,0.001065,-0.352602
1980-01-06T00:04:55.599431241Z,1.732205,1.194707,9.361329,0.125568,0.014914,-0.354200
1980-01-06T00:04:55.619128845Z,1.692701,1.306037,9.356541,0.137818,0.023835,-0.336091
1980-01-06T00:04:55.639223793Z,1.770512,1.290475,9.284714,0.142479,0.065647,-0.326503
1980-01-06T00:04:55.659036814Z,1.879448,1.424550,9.370906,0.133691,0.057657,-0.324373
1980-01-06T00:04:55.678895199Z,1.875857,1.350330,9.409213,0.121706,0.029961,-0.322242
1980-01-06T00:04:55.698787699Z,1.956063,1.499967,9.450812,0.126234,0.050999,-0.353667
1980-01-06T00:04:55.718626970Z,1.920150,1.545457,9.517850,0.140082,-0.001731,-0.355798
1980-01-06T00:04:55.738500564Z,1.825579,1.502362,9.583391,0.173505,0.020240,-0.369114
1980-01-06T00:04:55.758384262Z,1.807622,1.447295,9.406219,0.210656,0.036352,-0.380832
1980-01-06T00:04:55.778239522Z,1.707066,1.419762,9.363124,0.178565,0.018642,-0.363788
1980-01-06T00:04:55.798124157Z,1.692701,1.538275,9.372701,0.143012,0.040480,-0.360592
1980-01-06T00:04:55.837862074Z,1.707066,1.728614,9.377489,0.107192,0.049135,-0.359526
1980-01-06T00:04:55.857720460Z,1.648408,1.748964,9.420585,0.112518,0.033156,-0.349939
1980-01-06T00:04:55.877589418Z,1.562217,1.850718,9.329605,0.129430,0.060986,-0.358461
1980-01-06T00:04:55.897481241Z,1.596933,1.868674,9.273043,0.124636,0.084688,-0.368049
1980-01-06T00:04:55.917325199Z,1.602918,1.856703,9.330503,0.103331,0.046206,-0.379766
1980-01-06T00:04:55.937195876Z,1.551443,1.890222,9.244312,0.089482,0.014381,-0.396811
1980-01-06T00:04:55.957079418Z,1.487996,2.047042,9.229947,0.070973,0.023968,-0.398941
1980-01-06T00:04:55.976936397Z,1.468843,2.079364,9.105449,0.066313,0.037817,-0.403202
1980-01-06T00:04:55.996809887Z,1.499967,2.062605,9.192238,0.045540,0.031159,-0.409061
1980-01-06T00:04:56.016708949Z,1.515530,2.056619,9.326313,0.034222,0.026765,-0.400539
1980-01-06T00:04:56.036539939Z,1.404199,2.114080,9.324817,0.061519,0.010386,-0.385093
1980-01-06T00:04:56.056435824Z,1.395820,1.948880,9.219472,0.084156,0.055394,-0.406398
1980-01-06T00:04:56.076275199Z,1.483208,2.070984,9.281721,0.075234,0.019841,-0.419181
1980-01-06T00:04:56.096164887Z,1.490391,2.258929,9.177275,0.043676,0.006791,-0.401072
1980-01-06T00:04:56.116024678Z,1.525106,2.493561,9.177275,0.035819,0.066845,-0.396811
1980-01-06T00:04:56.135881293Z,1.367089,2.416947,9.028834,0.047937,0.063916,-0.403202
1980-01-06T00:04:56.155763741Z,1.286883,2.157176,9.043200,0.020506,0.097072,-0.431964
1980-01-06T00:04:56.175631032Z,1.183933,1.981202,9.263466,-0.030893,0.076566,-0.431964
1980-01-06T00:04:56.195502178Z,0.985214,1.957260,9.340080,-0.041812,0.064182,-0.439421
1980-01-06T00:04:56.215375824Z,0.843956,1.976413,9.340080,-0.019042,0.055261,-0.445813
1980-01-06T00:04:56.235230564Z,0.906205,2.086547,9.397541,0.005726,0.072837,-0.429834
1980-01-06T00:04:56.255109105Z,1.042675,2.184709,9.383176,0.036086,0.082957,-0.412790
1980-01-06T00:04:56.294852491Z,1.167173,2.123657,9.282619,0.048336,0.117445,-0.396811
1980-01-06T00:04:56.314715616Z,1.156399,2.154782,9.294291,0.034887,0.086286,-0.409594
1980-01-06T00:04:56.334543636Z,1.138443,2.105700,9.345766,0.019175,0.035420,-0.447411
1980-01-06T00:04:56.354282855Z,1.100136,2.164358,9.317036,-0.012650,0.011452,-0.475108
1980-01-06T00:04:56.374191709Z,0.973243,2.153584,9.297882,-0.016911,-0.012517,-0.480434
1980-01-06T00:04:56.394030095Z,0.817620,2.074576,9.412804,-0.006525,0.015313,-0.462324
1980-01-06T00:04:56.433937699Z,0.689530,2.146402,9.068039,0.065247,0.092278,-0.425040
1980-01-06T00:04:56.453817074Z,0.617704,2.159570,9.101558,0.033556,0.081892,-0.407996
1980-01-06T00:04:56.473617282Z,0.569820,2.116474,9.224260,0.019042,0.034621,-0.392550
1980-01-06T00:04:56.493531813Z,0.550666,2.370260,9.200318,0.047138,0.026765,-0.405333
1980-01-06T00:04:56.513358845Z,0.492008,2.400187,9.080608,0.063649,-0.000799,-0.386158
1980-01-06T00:04:56.533269678Z,0.646434,2.412158,9.051878,0.045673,0.063783,-0.364853
1980-01-06T00:04:56.553297959Z,0.708684,2.363077,9.042301,0.013715,0.084822,-0.368049
1980-01-06T00:04:56.573023532Z,0.656011,2.476802,9.027936,-0.017710,0.034754,-0.380832
1980-01-06T00:04:56.592884522Z,0.524330,2.450465,9.138069,-0.021705,0.011585,-0.386158
1980-01-06T00:04:56.612780511Z,0.556652,2.499547,9.206903,-0.026898,0.058589,-0.374973
1980-01-06T00:04:56.632585251Z,0.627281,2.501941,9.238326,-0.008123,0.088550,-0.366983
1980-01-06T00:04:56.652487595Z,0.480037,2.428918,9.190442,-0.002530,0.074835,-0.391484
1980-01-06T00:04:56.672349886Z,0.468066,2.317587,9.295788,-0.078963,0.056326,-0.433030
1980-01-06T00:04:56.692045511Z,0.367510,2.413355,9.320028,-0.054195,0.015047,-0.406398
1980-01-06T00:04:56.712201709Z,0.241814,2.375048,9.276933,-0.047138,0.065514,-0.400006
1980-01-06T00:04:56.731918324Z,0.185551,2.425326,9.200318,-0.020773,0.104795,-0.385093
1980-01-06T00:04:56.751833011Z,0.118513,2.503138,9.214684,-0.015979,0.083756,-0.351004
1980-01-06T00:04:56.771702178Z,0.195127,2.313996,9.136273,-0.016512,0.125967,-0.352070
1980-01-06T00:04:56.791584626Z,0.250194,2.395399,9.121908,-0.038749,0.120508,-0.347809
1980-01-06T00:04:56.811413584Z,0.225055,2.488773,9.131485,-0.067911,0.108124,-0.355265
1980-01-06T00:04:56.831307699Z,0.155623,2.479196,9.069236,-0.061652,0.090015,-0.388289
1980-01-06T00:04:56.851136397Z,0.047884,2.398990,9.121908,-0.069109,0.031692,-0.408529
1980-01-06T00:04:56.871019365Z,-0.100556,2.398990,9.030929,-0.075501,0.038749,-0.403202
1980-01-06T00:04:56.890887751Z,-0.107739,2.420538,8.989629,-0.080694,0.080561,-0.368049
1980-01-06T00:04:56.910749209Z,-0.106542,2.425326,9.013571,-0.086686,0.124503,-0.339286
1980-01-06T00:04:56.930623792Z,-0.100556,2.328361,9.047090,-0.101333,0.120641,-0.355265
1980-01-06T00:04:56.950487542Z,-0.244209,2.262521,9.138069,-0.135288,0.006125,-0.378701
1980-01-06T00:04:56.970362803Z,-0.548272,2.237381,9.005790,-0.161254,-0.125435,-0.388821
1980-01-06T00:04:56.990233480Z,-0.641646,1.991976,9.264363,-0.204131,-0.195476,-0.363255
1980-01-06T00:04:57.010099730Z,-0.627281,2.152387,9.609129,-0.249804,-0.165382,-0.281230
1980-01-06T00:04:57.049828688Z,-0.403423,2.124854,9.475053,-0.100268,0.015313,-0.196008
1980-01-06T00:04:57.069706605Z,-0.144849,2.171541,9.248801,-0.055261,0.061253,-0.186421
1980-01-06T00:04:57.089576397Z,0.248997,2.293645,9.148245,-0.099735,0.064848,-0.201335
1980-01-06T00:04:57.109444261Z,0.247800,2.282871,8.971074,-0.129163,0.026232,-0.266316
1980-01-06T00:04:57.129316969Z,0.160412,2.361880,9.076419,-0.149270,-0.031159,-0.325971
1980-01-06T00:04:57.149174261Z,-0.002394,2.167950,9.042900,-0.164051,-0.039548,-0.345145
1980-01-06T00:04:57.169048897Z,-0.219069,1.984793,9.153033,-0.178964,-0.001198,-0.336623
1980-01-06T00:04:57.208815147Z,-0.411803,1.763330,9.176975,-0.156993,0.112119,-0.265251
1980-01-06T00:04:57.228506084Z,-0.177171,1.800440,9.100361,-0.159124,0.147672,-0.265251
1980-01-06T00:04:57.248521657Z,-0.186748,1.745373,8.961497,-0.157260,0.051532,-0.298274
1980-01-06T00:04:57.268390719Z,-0.308852,1.674744,8.999804,-0.204930,-0.073104,-0.318514
1980-01-06T00:04:57.288271344Z,-0.314838,1.678335,9.133880,-0.282827,-0.118644,-0.302535
1980-01-06T00:04:57.308124261Z,-0.131681,1.665167,9.430161,-0.355399,-0.079096,-0.279632
1980-01-06T00:04:57.328001084Z,-0.237026,1.673547,9.698313,-0.351936,-0.022371,-0.286023
1980-01-06T00:04:57.347800511Z,-0.375890,1.531092,9.698313,-0.314120,0.002264,-0.311590
1980-01-06T00:04:57.367784938Z,-0.338780,1.468843,9.813234,-0.324506,-0.037684,-0.310524
1980-01-06T00:04:57.387608219Z,-0.367510,1.449689,9.851542,-0.348607,0.015446,-0.299872
1980-01-06T00:04:57.407475146Z,-0.496797,1.425747,9.789292,-0.298007,0.060720,-0.308394
1980-01-06T00:04:57.427358428Z,-0.639252,1.161188,9.798869,-0.260856,0.062318,-0.302002
1980-01-06T00:04:57.447288167Z,-0.702698,1.154005,9.856330,-0.266715,0.090947,-0.271110
1980-01-06T00:04:57.467232594Z,-0.727837,1.264138,9.698313,-0.225703,0.101866,-0.258326
1980-01-06T00:04:57.506816761Z,-0.760159,1.058237,9.560946,-0.131294,0.097472,-0.264185
1980-01-06T00:04:57.526543063Z,-0.833182,1.169568,9.559449,-0.150735,0.112785,-0.242347
1980-01-06T00:04:57.546525511Z,-0.860716,1.264138,9.367912,-0.128764,0.149670,-0.226369
1980-01-06T00:04:57.566427386Z,-0.853533,1.108515,9.310452,-0.100801,0.137020,-0.227434
1980-01-06T00:04:57.586299626Z,-0.815226,1.019930,9.444528,-0.124236,0.152066,-0.208259
1980-01-06T00:04:57.606164261Z,-0.907402,1.188721,9.440337,-0.150069,0.207194,-0.193878
1980-01-06T00:04:57.626039469Z,-0.954089,1.151611,9.540894,-0.137552,0.213319,-0.194943
1980-01-06T00:04:57.645914469Z,-0.828394,1.195904,9.660604,-0.157526,0.157260,-0.201335
1980-01-06T00:04:57.665763011Z,-0.843956,1.142034,9.579201,-0.179231,0.074169,-0.225836
1980-01-06T00:04:57.685661188Z,-1.080982,1.085770,9.401431,-0.165915,0.004794,-0.234891
1980-01-06T00:04:57.705475667Z,-1.333570,0.852336,9.329605,-0.153398,-0.022104,-0.199737
1980-01-06T00:04:57.725374573Z,-1.301249,0.590171,9.339182,-0.158857,0.041812,-0.161387
1980-01-06T00:04:57.745351344Z,-1.158794,0.642843,9.530719,-0.182826,0.101999,-0.126234
1980-01-06T00:04:57.804735980Z,-0.901417,0.841562,9.297882,-0.150868,0.086686,-0.129962
1980-01-06T00:04:57.824885407Z,-0.790087,0.494403,9.484630,-0.221308,-0.025167,-0.150202
1980-01-06T00:04:57.844609678Z,-0.879869,0.500388,9.743204,-0.287887,-0.040879,-0.151267
1980-01-06T00:04:57.864438740Z,-0.924162,0.742203,9.733627,-0.234225,0.017843,-0.145941
1980-01-06T00:04:57.884356917Z,-0.930147,0.719458,9.584888,-0.119176,0.091080,-0.157659
1980-01-06T00:04:57.904154678Z,-0.948104,0.604536,9.543288,-0.108923,0.133158,-0.141147
1980-01-06T00:04:57.943873375Z,-1.015141,0.301669,9.527725,-0.180962,0.080161,-0.120375
1980-01-06T00:04:57.963824782Z,-1.173159,0.199916,9.719262,-0.207593,0.001864,-0.115048
1980-01-06T00:04:57.983655459Z,-1.228225,0.116119,9.956587,-0.237554,-0.040746,-0.075101
1980-01-06T00:04:58.003512646Z,-1.307234,0.059855,10.148123,-0.194810,-0.074036,-0.000533
1980-01-06T00:04:58.023429573Z,-1.199495,0.099359,10.100239,-0.135555,0.039282,0.030360
1980-01-06T00:04:58.043288167Z,-1.065420,0.148441,9.812935,-0.079895,0.230496,0.010120
1980-01-06T00:04:58.063112594Z,-1.236605,0.269348,8.937555,-0.023036,0.285357,-0.003196
1980-01-06T00:04:58.102856552Z,-1.148020,0.220267,9.780313,-0.168578,0.101333,-0.026632
1980-01-06T00:04:58.122747073Z,-1.155202,0.153229,9.651027,-0.261389,0.012251,-0.071373
1980-01-06T00:04:58.142609469Z,-1.237802,0.124498,9.674969,-0.279365,-0.131826,-0.104396
1980-01-06T00:04:58.162467021Z,-1.244985,-0.143652,9.940725,-0.298407,-0.183225,-0.074036
1980-01-06T00:04:58.182360823Z,-1.322796,0.281319,10.635044,-0.031026,-0.022637,-0.099602
1980-01-06T00:04:58.202217229Z,-1.265336,0.001197,9.901221,-0.084422,0.062717,-0.080960
1980-01-06T00:04:58.222076136Z,-1.217452,-0.128090,9.891644,0.000533,0.074435,-0.084156
1980-01-06T00:04:58.241783896Z,-1.255759,-0.023942,10.030508,0.008389,0.025833,-0.059655
1980-01-06T00:04:58.261810615Z,-1.334767,-0.223858,9.810242,-0.018243,0.043010,-0.028762
1980-01-06T00:04:58.281697646Z,-1.248576,-0.271742,9.939528,0.005459,0.100801,-0.061785
1980-01-06T00:04:58.301554417Z,-1.464054,-0.094571,9.858126,0.060853,0.065913,-0.068177
1980-01-06T00:04:58.321421917Z,-1.587356,-0.053870,9.417592,0.051133,0.020639,-0.040480
1980-01-06T00:04:58.341144104Z,-1.382651,0.025139,9.537302,-0.019707,-0.013183,-0.013848
1980-01-06T00:04:58.361057698Z,-1.472434,0.039504,9.636662,-0.121706,-0.001332,0.035154
1980-01-06T00:04:58.381040927Z,-1.571793,-0.034716,9.378088,-0.052331,0.032624,0.007457
1980-01-06T00:04:58.420791709Z,-1.584962,-0.009577,9.465476,-0.101866,-0.076832,0.055394
1980-01-06T00:04:58.440639886Z,-1.484405,-0.193930,9.508572,-0.159390,-0.105727,0.084156
1980-01-06T00:04:58.460494625Z,-1.414973,-0.199916,9.733627,-0.229697,-0.106393,0.090547
1980-01-06T00:04:58.480386292Z,-1.312023,-0.184354,9.776723,-0.283227,-0.155928,0.117179
1980-01-06T00:04:58.500250719Z,-1.322796,-0.063446,9.612720,-0.259392,-0.157126,0.104396
1980-01-06T00:04:58.520157854Z,-1.318008,-0.043096,9.459491,-0.263786,-0.196142,0.078829
1980-01-06T00:04:58.559844313Z,-1.318008,-0.144849,9.564836,-0.312122,-0.224504,0.148072
1980-01-06T00:04:58.579729781Z,-1.280898,-0.325611,9.627085,-0.258460,-0.094542,0.142745
1980-01-06T00:04:58.599583896Z,-1.277307,-0.262165,10.092757,-0.214784,-0.066179,0.185356
1980-01-06T00:04:58.619456031Z,-1.423353,-0.337582,10.092757,-0.224371,0.010519,0.204531
1980-01-06T00:04:58.639328115Z,-1.167173,-0.416591,10.020931,-0.115315,0.014914,0.183225
1980-01-06T00:04:58.659197958Z,-1.139640,-0.333991,9.719262,-0.075101,0.030227,0.171507
1980-01-06T00:04:58.679070198Z,-1.007959,-0.440533,9.718064,-0.105861,-0.100401,0.168312
1980-01-06T00:04:58.718793896Z,-1.158794,-0.468066,9.488221,-0.105328,-0.176168,0.175768
1980-01-06T00:04:58.738674156Z,-0.990002,-0.405817,9.574412,-0.133291,-0.127033,0.208792
1980-01-06T00:04:58.758543688Z,-0.815226,-0.325611,9.940725,-0.181761,-0.078963,0.230630
1980-01-06T00:04:58.778428323Z,-0.854730,-0.366313,9.768343,-0.135288,-0.061652,0.229564
1980-01-06T00:04:58.798277125Z,-0.800860,-0.652420,9.648633,-0.121973,-0.014781,0.188019
1980-01-06T00:04:58.818143427Z,-0.701501,-0.749385,9.888053,-0.144343,-0.071106,0.176301
1980-01-06T00:04:58.838019886Z,-0.811634,-0.496797,9.945514,-0.227833,-0.114383,0.211455
1980-01-06T00:04:58.857876969Z,-0.893037,-0.518345,10.002975,-0.226235,-0.072971,0.212520
1980-01-06T00:04:58.877772958Z,-0.925359,-0.545878,9.940725,-0.155928,-0.040746,0.208259
1980-01-06T00:04:58.897625146Z,-0.968455,-0.720655,10.168175,-0.109056,-0.059255,0.210922
1980-01-06T00:04:58.917489313Z,-0.970849,-1.009156,10.134656,-0.109323,-0.080427,0.230097
1980-01-06T00:04:58.937364052Z,-0.814029,-0.988805,10.163386,-0.132892,-0.120375,0.223705
1980-01-06T00:04:58.957226240Z,-0.990002,-0.858321,9.944317,-0.138218,-0.180296,0.251402
1980-01-06T00:04:58.977109885Z,-0.984017,-0.877475,9.834184,-0.123304,-0.128764,0.273773
1980-01-06T00:04:59.016848167Z,-0.549469,-1.019930,9.578603,-0.143544,-0.129696,0.263653
1980-01-06T00:04:59.036709365Z,-0.557849,-1.077391,9.616910,-0.190016,-0.085487,0.280697
1980-01-06T00:04:59.056422594Z,-0.524330,-0.839168,9.819818,-0.132359,-0.007324,0.237554
1980-01-06T00:04:59.076420042Z,-0.774524,-0.672771,10.006566,0.011585,-0.084422,0.239684
1980-01-06T00:04:59.096284521Z,-1.086968,-0.998382,9.815030,0.117179,0.020773,0.225836
1980-01-06T00:04:59.116004990Z,-1.070208,-1.139640,9.690532,0.117445,0.103464,0.246076
1980-01-06T00:04:59.135852698Z,-1.057040,-1.163582,9.604341,0.085621,0.041412,0.259924
1980-01-06T00:04:59.155729104Z,-0.876278,-1.225831,9.680955,-0.016911,-0.049135,0.297209
1980-01-06T00:04:59.175977958Z,-0.573411,-1.049857,9.749189,-0.138617,-0.071240,0.316916
1980-01-06T00:04:59.195606500Z,-0.380678,-1.030704,9.710882,-0.167779,-0.095208,0.328634
1980-01-06T00:04:59.215461187Z,-0.293290,-1.018733,9.816227,-0.159656,-0.022237,0.312655
1980-01-06T00:04:59.235381344Z,-0.231040,-1.004368,9.744401,-0.149803,0.078164,0.281762
1980-01-06T00:04:59.255039208Z,-0.101754,-1.040281,9.744401,-0.158724,0.017311,0.274305
1980-01-06T00:04:59.275105406Z,-0.172383,-1.167173,9.730036,-0.133824,0.034754,0.232760
1980-01-06T00:04:59.294931656Z,-0.401029,-1.301249,9.658210,-0.135821,0.137153,0.208259
1980-01-06T00:04:59.314802698Z,-0.614113,-1.363498,9.782708,-0.179231,0.183891,0.214651
1980-01-06T00:04:59.334714781Z,-0.635661,-1.301249,10.113108,-0.205729,0.158591,0.230630
1980-01-06T00:04:59.354564000Z,-0.460884,-1.236605,10.419566,-0.173904,0.110521,0.238086
1980-01-06T00:04:59.374389469Z,-0.399832,-1.298854,10.125079,-0.105062,0.055394,0.209857
1980-01-06T00:04:59.394277750Z,-0.501585,-1.405396,10.235212,-0.074702,0.052731,0.191747
1980-01-06T00:04:59.414151812Z,-0.512359,-1.262941,10.077195,-0.058456,0.074568,0.152333
1980-01-06T00:04:59.434022073Z,-0.632069,-1.120486,9.981427,-0.034088,0.030227,0.141680
1980-01-06T00:04:59.453893844Z,-0.863110,-1.084573,9.914390,0.046738,0.051266,0.102265
1980-01-06T00:04:59.473774885Z,-0.905008,-1.351527,9.867403,0.052997,0.047138,0.089482
1980-01-06T00:04:59.493607333Z,-0.987608,-1.367089,9.919477,0.007590,-0.064848,0.100667
1980-01-06T00:04:59.513495823Z,-1.181539,-1.209072,9.981726,0.033955,-0.089216,0.131560
1980-01-06T00:04:59.533436916Z,-1.079785,-1.144428,9.804555,0.083490,-0.004794,0.139017
1980-01-06T00:04:59.553240927Z,-0.901417,-1.235408,9.598654,0.085621,-0.010919,0.160322
1980-01-06T00:04:59.573120927Z,-0.940921,-1.198298,9.512163,0.042877,-0.025433,0.173638
1980-01-06T00:04:59.612873739Z,-0.851139,-1.065420,9.828198,-0.002530,-0.102398,0.201335
1980-01-06T00:04:59.632717073Z,-0.940921,-1.152808,9.564836,0.023303,-0.089748,0.193878
1980-01-06T00:04:59.652585041Z,-0.672771,-1.168370,9.503783,-0.024102,-0.052864,0.203465
1980-01-06T00:04:59.672468739Z,-0.378284,-1.009156,9.724051,0.004394,-0.101999,0.159790
1980-01-06T00:04:59.692321656Z,-0.526724,-1.161188,9.661801,0.023036,-0.248073,0.128897
1980-01-06T00:04:59.712190979Z,-0.797269,-1.189918,9.408015,0.027431,-0.267514,0.121440
1980-01-06T00:04:59.732067906Z,-0.842759,-0.958878,9.508572,0.045939,-0.239285,0.132093
1980-01-06T00:04:59.751923739Z,-0.800860,-1.084573,9.685743,0.056725,-0.220243,0.190682
1980-01-06T00:04:59.771851656Z,-0.781707,-1.255759,9.743204,0.080561,-0.121840,0.181095
1980-01-06T00:04:59.791710666Z,-0.563834,-1.351527,9.963470,0.096273,-0.156194,0.172573
1980-01-06T00:04:59.811572541Z,-0.292093,-1.266533,10.102334,0.079895,-0.260457,0.181095
1980-01-06T00:04:59.831439625Z,-0.263362,-1.242591,10.068815,0.087352,-0.273773,0.159790
1980-01-06T00:04:59.851303323Z,-0.119710,-1.074997,10.006566,0.117978,-0.219178,0.135288
1980-01-06T00:04:59.871192854Z,-0.037110,-1.139640,9.824607,0.107858,-0.208925,0.124636
1980-01-06T00:04:59.891056083Z,-0.063446,-0.998382,9.843760,0.062451,-0.226369,0.121440
1980-01-06T00:04:59.910915979Z,-0.142455,-0.893037,9.791088,0.068443,-0.186954,0.116114
1980-01-06T00:04:59.930791604Z,-0.215478,-0.982820,9.652225,0.081359,-0.090814,0.107592
1980-01-06T00:04:59.950653687Z,0.059855,-1.125275,9.882068,0.076699,-0.031558,0.093743
1980-01-06T00:04:59.970537073Z,0.017957,-0.954089,9.924265,0.100534,-0.050467,0.066579
1980-01-06T00:04:59.990403739Z,-0.021548,-0.950498,9.694422,0.145408,-0.118777,0.033556
1980-01-06T00:05:00.010260354Z,-0.213084,-0.974440,9.498097,0.146607,-0.139416,0.014381
1980-01-06T00:05:00.030124260Z,-0.299275,-0.943315,9.478944,0.113584,-0.080827,0.055926
1980-01-06T00:05:00.050007698Z,-0.335188,-0.790087,9.485827,0.110654,0.002663,0.041013
1980-01-06T00:05:00.069872958Z,-0.195127,-0.746991,9.595961,0.094143,-0.048736,0.033556
1980-01-06T00:05:00.089738323Z,-0.318429,-0.739808,9.335890,0.072172,-0.139683,0.051133
1980-01-06T00:05:00.109616135Z,-0.478840,-0.791284,9.551369,0.027697,-0.092678,0.053263
1980-01-06T00:05:00.129466604Z,-0.494403,-0.689530,9.752481,0.039947,-0.017577,0.042611
1980-01-06T00:05:00.149352020Z,-0.248997,-0.730232,9.996690,0.087751,0.007057,0.017044
1980-01-06T00:05:00.169222541Z,0.331597,-0.818817,10.931925,0.123571,-0.561527,0.058057
1980-01-06T00:05:00.189092177Z,-0.383072,-0.847547,9.634268,0.220776,-0.119443,-0.129430
1980-01-06T00:05:00.208853322Z,0.234632,-0.654814,9.844957,0.138085,-0.176834,-0.052731
1980-01-06T00:05:00.228823427Z,0.045490,-0.653617,9.643845,0.155129,-0.122239,-0.078297
1980-01-06T00:05:00.248653166Z,0.015562,-0.660800,9.498995,0.082691,-0.264851,-0.079895
1980-01-06T00:05:00.268576239Z,0.025139,-0.604536,9.589975,0.051665,-0.447144,-0.056459
1980-01-06T00:05:00.288406239Z,-0.579397,-0.070629,8.796297,0.144876,0.002264,-0.126234
1980-01-06T00:05:00.308263739Z,0.216675,-0.707487,10.194510,0.154596,-0.034887,-0.027164
1980-01-06T00:05:00.328178635Z,0.189142,-0.617704,9.495404,0.164051,-0.010120,-0.133691
1980-01-06T00:05:00.348014468Z,-0.029928,-0.556652,9.749189,0.179763,-0.000266,-0.136886
1980-01-06T00:05:00.367848270Z,-0.053870,-0.506374,9.682152,0.216648,-0.013982,-0.175236
1980-01-06T00:05:00.407621239Z,0.099359,-0.385466,9.670480,0.190549,0.003063,-0.097472
1980-01-06T00:05:00.427340458Z,0.137667,-0.271742,9.895535,0.220376,-0.000666,-0.087884
1980-01-06T00:05:00.447425770Z,0.238223,-0.300472,9.742306,0.065247,-0.019042,-0.029295
1980-01-06T00:05:00.467334989Z,0.028730,-0.116119,9.847651,0.026632,-0.009987,-0.012251
1980-01-06T00:05:00.487097072Z,0.017957,-0.225055,9.747094,0.016245,-0.005992,-0.007989
1980-01-06T00:05:00.526830197Z,0.001197,-0.227449,9.732729,0.009055,-0.012384,-0.014381
1980-01-06T00:05:00.546692802Z,-0.008380,-0.240617,9.718364,0.013982,-0.013715,-0.013316
1980-01-06T00:05:00.566587385Z,0.047884,-0.038307,9.742306,0.010919,-0.000266,0.010120
1980-01-06T00:05:00.586275927Z,0.053870,-0.251391,9.694422,0.023702,-0.007590,0.004794
1980-01-06T00:05:00.606170614Z,0.003591,-0.295684,9.742306,0.037284,-0.008389,-0.004794
1980-01-06T00:05:00.626051760Z,-0.040701,-0.199916,9.737517,0.045939,-0.009454,-0.019707
1980-01-06T00:05:00.665817281Z,-0.033519,-0.005986,9.819818,0.011851,0.000799,-0.014914
1980-01-06T00:05:00.705523426Z,-0.009577,-0.120907,9.757569,0.002796,-0.006658,-0.012783
1980-01-06T00:05:00.725347437Z,0.046687,-0.184354,9.690532,0.017177,-0.014514,-0.012783
1980-01-06T00:05:00.745401239Z,-0.014365,-0.162806,9.709685,0.011585,-0.007723,-0.013848
1980-01-06T00:05:00.765270354Z,-0.041899,-0.215478,9.708787,-0.002663,-0.007057,-0.014381
1980-01-06T00:05:00.785119624Z,-0.026336,-0.168791,9.780613,-0.000666,-0.003995,-0.014381
1980-01-06T00:05:00.805025093Z,0.011971,-0.146046,9.723152,-0.005326,-0.008389,-0.017577
1980-01-06T00:05:00.824864572Z,0.037110,-0.214281,9.727941,-0.008522,-0.004261,-0.013316
1980-01-06T00:05:00.844740666Z,-0.081403,-0.178368,9.690532,0.004527,-0.008123,-0.017044
1980-01-06T00:05:00.864858531Z,-0.135272,-0.068235,9.719262,-0.011585,-0.018109,-0.011718
1980-01-06T00:05:00.884354468Z,0.067038,-0.233435,9.695320,-0.000133,-0.009987,-0.018109
1980-01-06T00:05:00.904352645Z,-0.019154,-0.174777,9.757569,-0.000266,-0.010120,-0.021305
1980-01-06T00:05:00.924336083Z,0.037110,-0.129287,9.709685,-0.000799,-0.008922,-0.018109
1980-01-06T00:05:00.944082853Z,0.015562,-0.166397,9.724051,-0.003462,-0.008123,-0.014914
1980-01-06T00:05:00.983818322Z,-0.004788,-0.190339,9.719262,-0.003329,-0.007590,-0.013848
1980-01-06T00:05:01.003679781Z,0.011971,-0.171185,9.724051,-0.002796,-0.009055,-0.014914
1980-01-06T00:05:01.023425249Z,0.045490,-0.156820,9.743204,-0.000666,-0.008522,-0.014914
1980-01-06T00:05:01.043460614Z,0.034716,-0.169988,9.719262,-0.001332,-0.008522,-0.014914
1980-01-06T00:05:01.063330458Z,0.029928,-0.173580,9.733627,-0.002530,-0.007989,-0.013848
1980-01-06T00:05:01.083164885Z,0.000000,-0.191536,9.719262,-0.004128,-0.008522,-0.013848
1980-01-06T00:05:01.103025770Z,-0.007183,-0.193930,9.728839,-0.001332,-0.007590,-0.013848
1980-01-06T00:05:01.123042280Z,0.013168,-0.167594,9.743204,-0.001198,-0.008522,-0.013848
1980-01-06T00:05:01.142763999Z,0.029928,-0.167594,9.728839,-0.001198,-0.007191,-0.014914
1980-01-06T00:05:01.162450614Z,0.033519,-0.178368,9.738416,-0.003063,-0.007723,-0.013848
1980-01-06T00:05:01.182507801Z,-0.015562,-0.168791,9.719262,-0.002929,-0.008123,-0.014914
1980-01-06T00:05:01.202372385Z,-0.008380,-0.199916,9.724051,-0.002796,-0.007723,-0.013848
1980-01-06T00:05:01.222113010Z,0.005986,-0.174777,9.724051,-0.001864,-0.007590,-0.013848
1980-01-06T00:05:01.281947801Z,0.032322,-0.173580,9.723152,-0.001065,-0.006525,-0.014381
1980-01-06T00:05:01.301688218Z,-0.020351,-0.171185,9.723152,-0.002796,-0.007856,-0.014381
1980-01-06T00:05:01.321472072Z,0.015562,-0.171185,9.727941,-0.001465,-0.008256,-0.015446
1980-01-06T00:05:01.341240353Z,0.010774,-0.192733,9.723152,-0.001332,-0.008256,-0.014381
1980-01-06T00:05:01.361135718Z,0.017957,-0.149638,9.742306,-0.004128,-0.008922,-0.015446
1980-01-06T00:05:01.381192228Z,0.038307,-0.159214,9.717466,-0.001198,-0.007989,-0.014381
1980-01-06T00:05:01.420886447Z,0.000000,-0.183156,9.727043,-0.003063,-0.007723,-0.014381
1980-01-06T00:05:01.440739728Z,-0.008380,-0.191536,9.727043,-0.000533,-0.008522,-0.015446
1980-01-06T00:05:01.460645041Z,0.016759,-0.175974,9.722255,-0.002796,-0.008389,-0.015446
1980-01-06T00:05:01.480532489Z,0.043096,-0.161609,9.707890,-0.001465,-0.008522,-0.015446
1980-01-06T00:05:01.500357749Z,0.022745,-0.172383,9.708787,-0.002264,-0.007590,-0.013316
1980-01-06T00:05:01.520226916Z,-0.005986,-0.185551,9.718364,-0.001731,-0.008522,-0.015446
1980-01-06T00:05:01.540102020Z,-0.004788,-0.178368,9.714474,-0.002796,-0.007989,-0.013848
1980-01-06T00:05:01.579831395Z,0.037110,-0.154426,9.730036,-0.001731,-0.008389,-0.015446
1980-01-06T00:05:01.599707124Z,0.032322,-0.158017,9.710882,-0.002929,-0.008256,-0.014381
1980-01-06T00:05:01.619559624Z,-0.008380,-0.171185,9.667787,-0.001731,-0.009454,-0.015446
1980-01-06T00:05:01.639443218Z,0.014365,-0.161609,9.768343,-0.001598,-0.008123,-0.014381
1980-01-06T00:05:01.659314728Z,-0.013168,-0.175974,9.753978,-0.002929,-0.008389,-0.014381
1980-01-06T00:05:01.679209676Z,0.019154,-0.169988,9.710882,-0.000133,-0.007989,-0.014381
