timestamp,accel_x,accel_y,accel_z,gyro_x,gyro_y,gyro_z
1980-01-06T00:25:06.932541612Z,-0.035913,-0.075417,9.675568,0.002796,-0.008522,-0.014914
1980-01-06T00:25:06.952435831Z,-0.046687,-0.169988,9.723452,0.000399,-0.007723,-0.013848
1980-01-06T00:25:06.972304789Z,0.011971,-0.215478,9.742605,0.001198,-0.007723,-0.013848
1980-01-06T00:25:06.992133175Z,-0.014365,-0.208296,9.651626,0.000133,-0.009454,-0.014914
1980-01-06T00:25:07.012218331Z,-0.035913,-0.201113,9.713875,0.001864,-0.008256,-0.013848
1980-01-06T00:25:07.051748487Z,-0.010774,-0.177171,9.680655,-0.003329,-0.008256,-0.013848
1980-01-06T00:25:07.071625414Z,-0.001197,-0.209493,9.690232,-0.004261,-0.008389,-0.014914
1980-01-06T00:25:07.091495831Z,-0.010774,-0.222661,9.699809,-0.004927,-0.009587,-0.014914
1980-01-06T00:25:07.111342654Z,0.007183,-0.220267,9.690232,-0.002264,-0.008256,-0.013848
1980-01-06T00:25:07.131605258Z,-0.020351,-0.198719,9.690232,-0.002264,-0.008522,-0.013848
1980-01-06T00:25:07.151103227Z,-0.015562,-0.202310,9.695021,-0.001997,-0.009587,-0.014914
1980-01-06T00:25:07.210706820Z,-0.001197,-0.196325,9.704597,-0.002796,-0.007723,-0.012783
1980-01-06T00:25:07.230574581Z,-0.032322,-0.210690,9.728539,-0.001332,-0.007590,-0.013848
1980-01-06T00:25:07.250438175Z,-0.028730,-0.197522,9.709386,-0.001997,-0.009055,-0.013848
1980-01-06T00:25:07.270343070Z,-0.023942,-0.192733,9.704597,-0.002397,-0.008256,-0.013848
1980-01-06T00:25:07.290190258Z,-0.003591,-0.196325,9.709386,-0.002530,-0.009321,-0.013848
1980-01-06T00:25:07.310057445Z,-0.007183,-0.201113,9.704597,-0.002397,-0.007590,-0.013848
1980-01-06T00:25:07.349781820Z,-0.043096,-0.183156,9.714772,-0.001598,-0.008389,-0.015446
1980-01-06T00:25:07.369690049Z,-0.011971,-0.177171,9.714772,-0.001997,-0.009321,-0.014381
1980-01-06T00:25:07.389540154Z,-0.015562,-0.190339,9.705195,-0.002397,-0.007856,-0.014381
1980-01-06T00:25:07.409450049Z,0.015562,-0.198719,9.705195,-0.002796,-0.007856,-0.014381
1980-01-06T00:25:07.429314164Z,-0.002394,-0.196325,9.700407,-0.002796,-0.007989,-0.014381
1980-01-06T00:25:07.449160154Z,-0.011971,-0.184354,9.700407,-0.002131,-0.007590,-0.013316
1980-01-06T00:25:07.469037081Z,-0.014365,-0.187945,9.714772,-0.003063,-0.009454,-0.015446
1980-01-06T00:25:07.508762602Z,-0.041899,0.039504,9.872790,-0.054062,-0.002397,-0.012251
1980-01-06T00:25:07.528633643Z,0.013168,0.141258,9.781811,-0.022371,-0.006392,-0.014381
1980-01-06T00:25:07.548526976Z,0.002394,-0.001197,9.791388,0.004794,-0.010786,-0.014381
1980-01-06T00:25:07.568375466Z,-0.003591,-0.155623,9.748292,0.006525,-0.007057,-0.017577
1980-01-06T00:25:07.588254372Z,-0.052672,-0.173580,9.714772,0.000133,-0.006525,-0.016512
1980-01-06T00:25:07.608146039Z,-0.034716,-0.243011,9.675867,-0.023569,-0.011185,-0.021305
1980-01-06T00:25:07.667747029Z,-0.010774,-0.211887,9.742905,-0.008389,-0.009188,-0.013848
1980-01-06T00:25:07.687622966Z,-0.014365,-0.173580,9.709386,-0.008655,-0.007590,-0.012783
1980-01-06T00:25:07.707460935Z,-0.017957,-0.177171,9.723452,-0.006125,-0.009321,-0.014381
1980-01-06T00:25:07.727381143Z,-0.019154,-0.155623,9.737817,-0.002663,-0.008522,-0.014381
1980-01-06T00:25:07.747185831Z,-0.009577,-0.185551,9.723452,-0.011718,-0.008389,-0.012251
1980-01-06T00:25:07.767091195Z,0.002394,-0.185551,9.718663,-0.014115,-0.008922,-0.010120
1980-01-06T00:25:07.826706508Z,-0.074220,-0.253785,9.709086,-0.038083,0.001997,-0.030360
1980-01-06T00:25:07.846578070Z,-0.079009,-0.148441,9.776124,0.000133,-0.010653,-0.063383
1980-01-06T00:25:07.866444945Z,-0.301669,-0.274136,9.689933,0.012650,-0.029428,-0.068710
1980-01-06T00:25:07.886312497Z,-0.979228,-0.020351,9.642049,0.068044,-0.017444,-0.112385
1980-01-06T00:25:07.906188487Z,-0.690727,0.319626,9.718663,0.078430,-0.011052,0.045274
1980-01-06T00:25:07.926070414Z,-0.836774,-0.004788,9.661202,0.031026,0.003595,0.229564
1980-01-06T00:25:07.946137914Z,-1.124078,-0.588974,10.130466,0.089748,-0.017710,0.192280
1980-01-06T00:25:07.966025153Z,-1.405396,-0.628478,9.780912,-0.028762,-0.011851,0.081493
1980-01-06T00:25:07.985871768Z,-1.699883,0.096965,10.207081,-0.130095,0.027164,0.141147
1980-01-06T00:25:08.005866039Z,-1.646014,0.338780,10.020332,-0.194411,0.215583,0.297741
1980-01-06T00:25:08.025423591Z,-1.185130,0.322020,10.235811,0.029162,0.438622,0.274305
1980-01-06T00:25:08.045329737Z,-1.028310,0.131681,10.168773,0.103597,0.385625,0.288154
1980-01-06T00:25:08.065132133Z,-1.042675,-0.129287,9.977237,-0.013449,0.173238,0.351004
1980-01-06T00:25:08.085011508Z,-1.055843,0.184354,9.895834,-0.136487,0.030094,0.417051
1980-01-06T00:25:08.124748955Z,-1.095347,0.245406,10.001179,-0.086420,0.034488,0.561926
1980-01-06T00:25:08.144601820Z,-0.939724,0.120907,9.891046,-0.043676,0.135821,0.604537
1980-01-06T00:25:08.164481820Z,-0.987608,-0.015562,9.766547,0.044741,0.252867,0.559796
1980-01-06T00:25:08.184366091Z,-0.937330,-0.094571,9.713875,-0.009854,0.250204,0.604537
1980-01-06T00:25:08.204232810Z,-0.567426,0.031125,9.914988,-0.119576,0.215050,0.659931
1980-01-06T00:25:08.224087549Z,-0.593762,-0.056264,10.020332,-0.079895,0.195343,0.646082
1980-01-06T00:25:08.283685205Z,-0.727837,0.020351,10.341156,0.054062,0.214651,0.690823
1980-01-06T00:25:08.303549268Z,-0.652420,-0.147243,10.140042,0.036752,0.199471,0.715324
1980-01-06T00:25:08.323465466Z,-0.506374,-0.128090,10.155306,0.011585,0.233825,0.668453
1980-01-06T00:25:08.343296247Z,-0.374693,0.019154,10.543166,-0.036485,0.108657,0.678040
1980-01-06T00:25:08.363146403Z,-0.377087,-0.019154,10.452187,-0.131826,0.011984,0.660996
1980-01-06T00:25:08.383042341Z,-0.956484,0.022745,10.447398,-0.108391,-0.019042,0.669518
1980-01-06T00:25:08.422777653Z,-1.154005,0.079009,10.337265,-0.020639,0.137419,0.753674
1980-01-06T00:25:08.442663226Z,-1.034295,-0.032322,10.461763,0.053263,0.166048,0.754739
1980-01-06T00:25:08.462579216Z,-0.742203,0.035913,10.595839,0.000266,0.090414,0.803741
1980-01-06T00:25:08.482386143Z,-0.852336,-0.094571,10.691607,-0.027830,0.022371,0.839960
1980-01-06T00:25:08.502286455Z,-0.616507,-0.178368,10.916662,0.019441,-0.011585,0.842091
1980-01-06T00:25:08.522163903Z,-0.580594,-0.068235,11.299734,0.366051,-0.140348,0.804807
1980-01-06T00:25:08.542031403Z,-0.439336,-0.378284,11.194389,-0.035287,-0.137552,0.857005
1980-01-06T00:25:08.581766195Z,-0.457293,-0.337582,10.878355,0.242347,-0.098004,0.712129
1980-01-06T00:25:08.601640622Z,-0.500388,-0.270545,11.017219,0.193878,-0.136487,0.713194
1980-01-06T00:25:08.621548851Z,-0.597353,-0.269348,10.638934,0.220376,-0.181095,0.727042
1980-01-06T00:25:08.641358330Z,-0.464475,-0.275333,10.567108,0.328900,-0.129696,0.668453
1980-01-06T00:25:08.661238591Z,-0.339977,-0.422577,9.997289,0.445946,-0.099735,0.634364
1980-01-06T00:25:08.681106559Z,-0.341174,-0.353145,10.926239,0.374840,-0.129296,0.627973
1980-01-06T00:25:08.740730361Z,-0.373495,-0.211887,10.806529,0.265384,-0.411059,0.613059
1980-01-06T00:25:08.760614320Z,-0.360327,-0.105345,10.902297,0.255131,-0.501872,0.584297
1980-01-06T00:25:08.780498382Z,-0.310049,0.017957,10.873567,0.296143,-0.549277,0.558731
1980-01-06T00:25:08.800553278Z,-0.215478,-0.210690,10.543166,0.250870,-0.536893,0.556600
1980-01-06T00:25:08.820427393Z,-0.005986,-0.155623,10.370784,0.276835,-0.492951,0.534230
1980-01-06T00:25:08.840177497Z,0.177171,0.082600,10.490494,0.329033,-0.449808,0.472444
1980-01-06T00:25:08.899675257Z,0.514753,-0.099359,10.476129,0.428369,-0.586428,0.356331
1980-01-06T00:25:08.919746768Z,0.618901,0.039504,10.433033,0.422643,-0.621981,0.313720
1980-01-06T00:25:08.939397861Z,0.687136,0.201113,10.552743,0.433296,-0.617187,0.271110
1980-01-06T00:25:08.959317236Z,0.809240,0.369904,10.662876,0.464988,-0.675643,0.237021
1980-01-06T00:25:08.979147913Z,0.974440,0.413000,10.586262,0.486426,-0.734499,0.199737
1980-01-06T00:25:08.999057966Z,1.103727,0.272939,10.227132,0.542752,-0.786164,0.140082
1980-01-06T00:25:09.038761299Z,1.431733,0.219069,9.829695,0.484961,-0.761131,0.085754
1980-01-06T00:25:09.058655049Z,1.655591,0.310049,9.681253,0.496280,-0.672980,0.025034
1980-01-06T00:25:09.078533851Z,2.029086,0.446519,9.480141,0.506666,-0.618785,-0.022903
1980-01-06T00:25:09.098375778Z,2.257732,0.505177,9.389161,0.529969,-0.573378,-0.083623
1980-01-06T00:25:09.118463382Z,2.509123,0.670376,9.068338,0.579503,-0.492418,-0.172040
1980-01-06T00:25:09.138131820Z,2.725799,0.582988,8.824130,0.611195,-0.446079,-0.265783
1980-01-06T00:25:09.197734424Z,3.229778,0.843956,8.072351,0.682168,-0.432364,-0.528903
1980-01-06T00:25:09.217623330Z,3.251326,0.877475,7.923311,0.550741,-0.370179,-0.581634
1980-01-06T00:25:09.237467861Z,3.156755,1.274912,7.999926,0.573378,-0.354600,-0.645550
1980-01-06T00:25:09.257322132Z,3.014300,1.265336,7.568969,0.646748,-0.217447,-0.751011
1980-01-06T00:25:09.277219684Z,3.122039,1.386243,7.602488,0.643952,-0.161920,-0.847950
1980-01-06T00:25:09.297081038Z,3.066972,1.377863,7.573758,0.573112,-0.239684,-0.885234
1980-01-06T00:25:09.356900257Z,2.560599,1.922544,6.793248,0.471113,-0.278034,-1.107874
1980-01-06T00:25:09.376542549Z,2.494758,2.147599,6.692692,0.449808,-0.248473,-1.155811
1980-01-06T00:25:09.396448538Z,2.476802,2.491167,6.644807,0.442218,-0.239152,-1.211205
1980-01-06T00:25:09.416286247Z,2.528277,2.609680,6.505944,0.408262,-0.270710,-1.264468
1980-01-06T00:25:09.436151038Z,2.377442,2.744952,6.362292,0.334360,-0.286822,-1.306013
1980-01-06T00:25:09.456053695Z,2.042254,3.247735,6.290466,0.292947,-0.242481,-1.363537
1980-01-06T00:25:09.495765205Z,1.581370,3.427300,6.233005,0.211055,-0.122638,-1.412539
1980-01-06T00:25:09.515664528Z,1.398214,3.539827,6.352715,0.175768,-0.066845,-1.432779
1980-01-06T00:25:09.535526924Z,1.103727,3.652355,6.371869,0.182693,-0.018775,-1.443432
1980-01-06T00:25:09.555426819Z,0.833182,3.628413,6.496367,0.162586,0.049135,-1.430649
1980-01-06T00:25:09.575296872Z,0.481235,3.689465,6.510732,0.177233,0.071772,-1.413605
1980-01-06T00:25:09.595215986Z,0.233435,3.854665,6.515521,0.096406,0.037417,-1.412539
1980-01-06T00:25:09.615017184Z,0.013168,3.971981,6.501155,0.022104,-0.016245,-1.447693
1980-01-06T00:25:09.654745830Z,-0.632069,3.964798,6.722919,-0.186288,-0.197740,-1.349689
1980-01-06T00:25:09.674649684Z,-1.096544,4.340688,6.967127,-0.187486,-0.128631,-1.290034
1980-01-06T00:25:09.694472809Z,-1.316811,4.473566,7.024588,-0.141547,-0.056326,-1.244228
1980-01-06T00:25:09.714360622Z,-1.417367,4.076128,6.895301,-0.122372,-0.105461,-1.205878
1980-01-06T00:25:09.734243069Z,-1.307234,3.928885,6.761226,-0.303201,-0.169510,-1.178181
1980-01-06T00:25:09.754097757Z,-1.346738,4.102465,6.895301,-0.411192,-0.294279,-1.106809
1980-01-06T00:25:09.813731871Z,-1.742979,4.335899,7.564181,-0.423842,-0.185356,-0.937432
1980-01-06T00:25:09.833561299Z,-1.535880,3.894169,7.430106,-0.384826,-0.041678,-0.967259
1980-01-06T00:25:09.853431142Z,-1.525106,3.924097,7.568969,-0.477105,-0.073370,-0.920388
1980-01-06T00:25:09.873297757Z,-1.774103,3.898957,7.722198,-0.525574,-0.167380,-0.847950
1980-01-06T00:25:09.893203069Z,-1.968034,3.736152,7.928100,-0.492019,-0.158325,-0.794687
1980-01-06T00:25:09.913078590Z,-1.794454,3.846285,7.889792,-0.533164,-0.018775,-0.765924
1980-01-06T00:25:09.952829632Z,-2.136825,3.383007,7.918223,-0.458463,-0.111054,-0.759000
1980-01-06T00:25:09.972676090Z,-2.276886,2.847903,7.688380,-0.521713,-0.156727,-0.745152
1980-01-06T00:25:09.992530569Z,-2.444480,3.345897,8.071452,-0.695750,-0.139017,-0.654604
1980-01-06T00:25:10.012396403Z,-2.547431,4.022259,8.832808,-0.728108,-0.106793,-0.543817
1980-01-06T00:25:10.032298278Z,-2.580950,3.942053,8.976460,-0.683766,0.011851,-0.490554
1980-01-06T00:25:10.052322340Z,-2.621651,3.762488,9.306861,-0.650876,0.027164,-0.391484
1980-01-06T00:25:10.072040830Z,-2.686294,3.283648,9.297284,-0.667121,0.082425,-0.303067
1980-01-06T00:25:10.111790309Z,-2.286463,3.295619,9.675568,-1.046621,0.085487,-0.151800
1980-01-06T00:25:10.131635309Z,-2.404976,3.573346,10.341156,-0.790026,-0.156461,-0.152865
1980-01-06T00:25:10.151494476Z,-2.953248,3.086126,9.364322,-0.812796,-0.148072,-0.063383
1980-01-06T00:25:10.171373017Z,-2.811990,2.424129,9.201516,-0.844621,-0.168312,0.014381
1980-01-06T00:25:10.191277757Z,-2.590526,2.643199,9.862315,-0.995622,-0.178964,0.232760
1980-01-06T00:25:10.211120934Z,-2.552219,3.058593,10.355521,-1.009470,0.005060,0.340352
1980-01-06T00:25:10.270907080Z,-2.472013,1.551443,10.503962,-1.038499,-0.125168,0.735564
1980-01-06T00:25:10.290587288Z,-2.255338,1.545457,10.978013,-1.188834,-0.008522,0.907072
1980-01-06T00:25:10.310456090Z,-2.199074,1.918953,11.562199,-1.102681,0.205596,0.995489
1980-01-06T00:25:10.330333538Z,-2.121263,1.759738,11.461642,-0.851811,0.306796,1.002946
1980-01-06T00:25:10.350215778Z,-1.810017,1.370680,12.084134,-0.817190,0.173372,1.072188
1980-01-06T00:25:10.370070934Z,-2.181118,1.587356,11.485584,-0.764593,-0.053529,1.111603
1980-01-06T00:25:10.429709111Z,-2.030283,0.568623,11.768100,-0.651941,0.122905,1.414137
1980-01-06T00:25:10.449522392Z,-1.687912,0.618901,12.151173,-0.504535,0.334093,1.429051
1980-01-06T00:25:10.469414580Z,-1.525106,0.356736,12.160749,-0.326237,0.309592,1.421594
1980-01-06T00:25:10.489277548Z,-1.408988,0.019154,11.672332,-0.263653,0.198938,1.433312
1980-01-06T00:25:10.509140673Z,-1.120486,-0.355539,11.758523,-0.231828,0.120108,1.472727
1980-01-06T00:25:10.529016298Z,-1.030704,-0.355539,11.930905,-0.171374,0.149004,1.483379
1980-01-06T00:25:10.568777548Z,-0.396240,-0.714669,12.653955,-0.034488,0.265517,1.479118
1980-01-06T00:25:10.588650934Z,-0.017957,-0.572214,13.056180,0.058856,0.326503,1.439704
1980-01-06T00:25:10.608551507Z,0.197522,-0.737414,13.266870,0.217846,0.354600,1.350222
1980-01-06T00:25:10.628422079Z,0.198719,-0.526724,13.161526,0.327435,0.272175,1.260739
1980-01-06T00:25:10.648268017Z,-0.152032,-0.585382,12.859856,0.441685,0.055127,1.155278
1980-01-06T00:25:10.668104788Z,-0.359130,-0.806846,12.467207,0.434095,-0.205463,1.107874
1980-01-06T00:25:10.688000934Z,-0.661997,-0.647632,11.883021,0.692022,-0.394414,1.056741
1980-01-06T00:25:10.727698329Z,-0.040701,-0.963666,11.777677,0.407996,-0.398675,1.038632
1980-01-06T00:25:10.747614371Z,0.359130,-0.755371,11.732785,0.421844,-0.383229,0.994424
1980-01-06T00:25:10.767693538Z,0.610521,-0.831985,11.732785,0.532632,-0.454468,0.912398
1980-01-06T00:25:10.787404736Z,0.830788,-0.871489,11.402386,0.532632,-0.588691,0.805872
1980-01-06T00:25:10.807280517Z,0.881066,-1.021127,10.751163,0.551807,-0.755671,0.730238
1980-01-06T00:25:10.827071715Z,1.064223,-0.816423,10.631453,0.575642,-0.783768,0.640756
1980-01-06T00:25:10.847162079Z,1.119289,-0.538695,10.602722,0.634498,-0.732235,0.547013
1980-01-06T00:25:10.886687340Z,1.454478,-0.083797,10.008960,0.668453,-0.696150,0.398941
1980-01-06T00:25:10.906576090Z,1.650802,-0.144849,9.618406,0.647281,-0.709466,0.318514
1980-01-06T00:25:10.926420569Z,1.707066,-0.130484,9.259275,0.615589,-0.727442,0.211987
1980-01-06T00:25:10.946318538Z,1.686715,0.039504,8.914511,0.553538,-0.725311,0.136354
1980-01-06T00:25:10.966180621Z,1.619677,0.367510,8.651149,0.526506,-0.654471,0.047937
1980-01-06T00:25:10.986040986Z,1.754950,0.814029,8.727763,0.551008,-0.610929,0.002131
1980-01-06T00:25:11.025771194Z,2.015918,0.791284,8.095694,0.613325,-0.500008,-0.134223
1980-01-06T00:25:11.045650100Z,2.153584,1.047463,7.975984,0.526506,-0.484162,-0.183225
1980-01-06T00:25:11.065537079Z,2.140416,1.270124,8.023868,0.446479,-0.492019,-0.231162
1980-01-06T00:25:11.085368746Z,2.104503,1.428141,8.105270,0.412790,-0.479502,-0.296143
1980-01-06T00:25:11.105258433Z,2.104503,1.513135,8.033444,0.397876,-0.448476,-0.365385
1980-01-06T00:25:11.125119475Z,2.036268,1.624466,8.066963,0.400140,-0.427437,-0.419714
1980-01-06T00:25:11.184734267Z,2.026692,1.832761,7.602488,0.255530,-0.418782,-0.563524
1980-01-06T00:25:11.204664215Z,2.011129,2.084153,7.228993,0.274039,-0.431964,-0.631701
1980-01-06T00:25:11.224454267Z,2.049437,2.211045,7.694964,0.152466,-0.433562,-0.638093
1980-01-06T00:25:11.244341819Z,2.080561,2.506729,7.712622,0.192946,-0.339020,-0.713727
1980-01-06T00:25:11.264247600Z,2.116474,2.646790,7.707833,0.169377,-0.256462,-0.746750
1980-01-06T00:25:11.284067131Z,2.082955,2.792836,7.712622,0.115847,-0.204264,-0.768055
1980-01-06T00:25:11.343712392Z,1.474828,2.734178,7.760506,0.224771,-0.007057,-0.817057
1980-01-06T00:25:11.363606819Z,1.285686,2.823961,7.487566,0.187753,-0.012783,-0.825579
1980-01-06T00:25:11.383489371Z,1.242591,2.901772,7.487566,0.109056,-0.040613,-0.813861
1980-01-06T00:25:11.403353746Z,1.301249,3.214216,7.674314,0.079362,-0.016778,-0.813861
1980-01-06T00:25:11.423190256Z,1.168370,3.468001,7.750929,0.090281,0.026365,-0.824514
1980-01-06T00:25:11.443055152Z,1.054646,3.593697,7.664738,0.085221,0.074968,-0.825579
1980-01-06T00:25:11.482770985Z,0.826000,3.558981,7.415740,0.000000,0.066712,-0.829840
1980-01-06T00:25:11.502704110Z,0.640449,3.593697,7.396587,-0.060321,0.066712,-0.815992
1980-01-06T00:25:11.522538433Z,0.554258,3.608062,7.575254,-0.097338,0.088284,-0.777642
1980-01-06T00:25:11.542416402Z,0.383072,3.561375,7.685388,-0.120108,0.156594,-0.757402
1980-01-06T00:25:11.562294423Z,0.322020,3.647566,7.699753,-0.133424,0.228233,-0.758468
1980-01-06T00:25:11.582171246Z,0.228646,3.782839,7.690176,-0.152066,0.200802,-0.739293
1980-01-06T00:25:11.602030933Z,-0.023942,3.751714,7.599196,-0.200536,0.162186,-0.726510
1980-01-06T00:25:11.622101610Z,-0.119710,3.670311,7.781156,-0.305198,0.166048,-0.697748
1980-01-06T00:25:11.661610256Z,-0.396240,3.730166,8.125920,-0.332096,0.191481,-0.647680
1980-01-06T00:25:11.681474110Z,-0.496797,3.447650,8.145074,-0.326104,0.214917,-0.617853
1980-01-06T00:25:11.701351402Z,-0.456095,3.537433,8.259995,-0.341284,0.273373,-0.602939
1980-01-06T00:25:11.721410256Z,-0.429759,3.432088,8.355764,-0.384560,0.249538,-0.559263
1980-01-06T00:25:11.741105725Z,-0.459687,3.312378,8.427590,-0.435826,0.267781,-0.540089
1980-01-06T00:25:11.800705204Z,-0.758962,3.283648,8.547300,-0.400140,0.342615,-0.531567
1980-01-06T00:25:11.820596350Z,-0.835576,3.271677,8.686164,-0.449941,0.296942,-0.533697
1980-01-06T00:25:11.840665256Z,-0.930147,3.235764,8.935161,-0.446878,0.240350,-0.523044
1980-01-06T00:25:11.860335673Z,-1.266533,3.071761,8.968679,-0.407596,0.226369,-0.509196
1980-01-06T00:25:11.880247027Z,-1.507150,2.984372,8.992621,-0.405066,0.199870,-0.490021
1980-01-06T00:25:11.900066558Z,-1.654393,2.904167,9.059659,-0.449541,0.151001,-0.452737
1980-01-06T00:25:11.959775204Z,-2.108095,2.862268,8.341399,-0.540355,0.279632,-0.284425
1980-01-06T00:25:11.979583329Z,-1.909376,2.816778,9.083601,-0.480700,0.347143,-0.260990
1980-01-06T00:25:11.999441454Z,-1.939303,3.069367,8.724471,-0.503204,0.337822,-0.209857
1980-01-06T00:25:12.019515464Z,-2.061408,2.893393,8.738836,-0.588958,0.226235,-0.152333
1980-01-06T00:25:12.039185985Z,-2.145205,2.767697,9.160215,-0.581634,0.096406,-0.105461
1980-01-06T00:25:12.059046662Z,-2.059013,2.292448,9.260772,-0.630769,0.122905,-0.120375
1980-01-06T00:25:12.098769214Z,-2.187103,2.001553,9.667787,-0.731037,0.013982,-0.035154
1980-01-06T00:25:12.118627391Z,-2.104503,1.829170,9.720459,-0.739826,-0.031425,-0.023436
1980-01-06T00:25:12.138512652Z,-2.148796,1.839944,10.055647,-0.744353,-0.133957,0.019175
1980-01-06T00:25:12.158395568Z,-2.492364,1.796848,9.835381,-0.699479,-0.119176,0.087352
1980-01-06T00:25:12.178258173Z,-2.655170,1.928530,10.323798,-0.537825,-0.003862,0.129962
1980-01-06T00:25:12.198146089Z,-2.815581,1.538275,9.940725,-0.443815,0.106127,0.218379
1980-01-06T00:25:12.218028589Z,-2.580950,1.169568,10.074800,-0.470447,0.201202,0.336623
1980-01-06T00:25:12.257727548Z,-2.073379,1.108515,10.366894,-0.512791,0.239285,0.422910
1980-01-06T00:25:12.277576610Z,-2.279280,1.142034,10.591949,-0.473243,0.107325,0.431432
1980-01-06T00:25:12.297480673Z,-2.243367,0.811634,10.462662,-0.447677,-0.066579,0.501739
1980-01-06T00:25:12.317316871Z,-2.104503,0.611719,10.884041,-0.529702,-0.048603,0.578438
1980-01-06T00:25:12.337220412Z,-2.072181,0.895431,10.936713,-0.449142,0.114250,0.562459
1980-01-06T00:25:12.357067339Z,-2.232593,0.831985,10.797850,-0.346477,0.134889,0.597613
1980-01-06T00:25:12.377007391Z,-2.293645,0.699107,10.773908,-0.327702,0.047005,0.656202
1980-01-06T00:25:12.416724162Z,-2.231396,0.457293,10.668563,-0.339020,0.034488,0.743554
1980-01-06T00:25:12.436610412Z,-2.262521,0.391452,10.548853,-0.350205,-0.017710,0.801078
1980-01-06T00:25:12.456439891Z,-2.155979,0.337582,10.927136,-0.375239,0.049002,0.878842
1980-01-06T00:25:12.476318537Z,-2.001553,0.511162,11.099519,-0.299605,0.182426,0.870320
1980-01-06T00:25:12.496172443Z,-2.023100,0.155623,10.970232,-0.359793,0.126900,0.931040
1980-01-06T00:25:12.516083589Z,-2.076970,0.180762,11.080365,-0.302269,0.024235,0.993891
1980-01-06T00:25:12.555792652Z,-1.602918,-0.123301,11.520899,-0.223972,-0.021705,1.026914
1980-01-06T00:25:12.575689266Z,-1.689109,-0.197522,11.362882,-0.151267,-0.044874,1.029045
1980-01-06T00:25:12.595520829Z,-1.399411,-0.501585,11.453861,-0.135821,-0.027431,1.059937
1980-01-06T00:25:12.615371193Z,-1.097741,-0.451307,11.496957,-0.098936,-0.027031,1.032240
1980-01-06T00:25:12.635471818Z,-1.109712,-0.426168,11.214440,-0.086819,-0.168312,1.056741
1980-01-06T00:25:12.655119058Z,-1.031901,-0.629675,11.305421,-0.083490,-0.283760,1.089765
1980-01-06T00:25:12.675005412Z,-0.815226,-0.676362,11.530476,-0.055261,-0.313720,1.094026
1980-01-06T00:25:12.714741245Z,-0.336385,-0.857124,11.468226,0.137685,-0.348874,1.009870
1980-01-06T00:25:12.734620412Z,-0.366313,-0.802058,11.300632,0.151267,-0.406265,0.974716
1980-01-06T00:25:12.754664162Z,-0.393846,-0.606930,11.085154,0.185622,-0.362589,0.931040
1980-01-06T00:25:12.774510568Z,-0.428562,-0.586579,10.975020,0.242481,-0.284026,0.893756
1980-01-06T00:25:12.794212235Z,-0.446519,-0.423774,11.085154,0.276303,-0.247541,0.883103
1980-01-06T00:25:12.814158329Z,-0.393846,-0.585382,11.085154,0.338754,-0.270044,0.857537
1980-01-06T00:25:12.873687131Z,-0.430956,-0.350751,10.620679,0.217980,-0.746483,0.807470
1980-01-06T00:25:12.893562339Z,-0.193930,-0.248997,10.328587,0.228499,-0.583099,0.800013
1980-01-06T00:25:12.913424683Z,0.258574,-0.071826,10.113108,0.299739,-0.288820,0.758468
1980-01-06T00:25:12.933342495Z,0.592565,0.125696,10.381259,0.362456,-0.209724,0.721183
1980-01-06T00:25:12.953208641Z,0.745794,0.001197,10.529699,0.323707,-0.327835,0.708400
1980-01-06T00:25:12.973049891Z,0.766145,0.093374,10.328587,0.452071,-0.423842,0.643419
1980-01-06T00:25:13.032629006Z,0.883460,0.283713,9.873688,0.425440,-0.429168,0.521979
1980-01-06T00:25:13.052553433Z,1.001973,0.609324,9.964667,0.428103,-0.412656,0.487891
1980-01-06T00:25:13.072374162Z,1.176750,0.639252,9.940725,0.455800,-0.422776,0.444215
1980-01-06T00:25:13.092269422Z,1.255759,0.846350,9.864111,0.474974,-0.433695,0.382430
1980-01-06T00:25:13.112152547Z,1.314417,0.743400,9.777920,0.491486,-0.509329,0.323840
1980-01-06T00:25:13.132060933Z,1.347936,0.932542,9.730036,0.474575,-0.586561,0.250337
1980-01-06T00:25:13.171732860Z,1.404199,0.975637,9.294291,0.503870,-0.526506,0.201335
1980-01-06T00:25:13.191644474Z,1.486799,0.931344,9.198523,0.474575,-0.486426,0.184291
1980-01-06T00:25:13.211482808Z,1.624466,1.108515,9.232041,0.420246,-0.518783,0.167246
1980-01-06T00:25:13.231369578Z,1.677138,1.222240,9.260772,0.425173,-0.575109,0.137419
1980-01-06T00:25:13.251288016Z,1.778892,1.070208,9.279925,0.417051,-0.613592,0.113983
1980-01-06T00:25:13.271097339Z,1.905785,1.134852,9.208099,0.394014,-0.590023,0.079895
1980-01-06T00:25:13.330780933Z,2.472013,1.454478,8.781932,0.384427,-0.496413,-0.025566
1980-01-06T00:25:13.350598589Z,2.425326,1.660379,8.791509,0.362190,-0.525708,-0.064981
1980-01-06T00:25:13.370469006Z,2.455254,1.735796,8.619126,0.391351,-0.533031,-0.108657
1980-01-06T00:25:13.390313172Z,2.325967,1.655591,7.685388,0.610396,-0.517984,-0.191747
1980-01-06T00:25:13.410205985Z,2.355895,1.636437,8.451532,0.326104,-0.440753,-0.186421
1980-01-06T00:25:13.430243328Z,2.357092,1.829170,8.437167,0.369114,-0.428369,-0.251402
1980-01-06T00:25:13.489739995Z,2.662352,2.340332,8.279149,0.323973,-0.228233,-0.249272
1980-01-06T00:25:13.509538953Z,2.865860,2.450465,7.953538,0.276569,-0.206661,-0.266316
1980-01-06T00:25:13.529375880Z,2.973598,2.476802,7.963115,0.256995,-0.202666,-0.276969
1980-01-06T00:25:13.549254214Z,3.066972,2.625242,8.020576,0.249804,-0.158857,-0.308926
1980-01-06T00:25:13.569152703Z,3.104083,2.726996,8.054094,0.266715,-0.122772,-0.349406
1980-01-06T00:25:13.589012183Z,3.162740,2.707842,8.111555,0.225836,-0.135954,-0.366451
1980-01-06T00:25:13.628748849Z,3.126827,3.017891,8.116343,0.192147,-0.182160,-0.454868
1980-01-06T00:25:13.648621297Z,3.064578,3.072958,8.025364,0.187886,-0.211588,-0.503870
1980-01-06T00:25:13.668520985Z,2.871845,3.226187,8.197746,0.184424,-0.235690,-0.526240
1980-01-06T00:25:13.688348120Z,2.742558,3.465607,8.173804,0.195609,-0.219178,-0.553937
1980-01-06T00:25:13.708247287Z,2.651578,3.423708,8.082825,0.188818,-0.180828,-0.579503
1980-01-06T00:25:13.728118589Z,2.651578,3.366248,8.078036,0.147006,-0.151933,-0.584830
1980-01-06T00:25:13.787744943Z,2.595315,3.375824,8.169016,0.009188,-0.257261,-0.643419
1980-01-06T00:25:13.807599682Z,2.542642,3.491943,8.092402,-0.013049,-0.284825,-0.646615
1980-01-06T00:25:13.827421037Z,2.540248,3.452439,8.039729,-0.049668,-0.261655,-0.639158
1980-01-06T00:25:13.847338693Z,2.731784,3.689465,8.236952,-0.047138,-0.191481,-0.669918
1980-01-06T00:25:13.867196714Z,2.786851,3.827132,8.361450,-0.005593,-0.222107,-0.686962
1980-01-06T00:25:13.887087495Z,2.759317,3.755305,8.260894,0.032091,-0.231029,-0.721050
1980-01-06T00:25:13.946685516Z,2.044648,3.719392,7.719804,0.021039,-0.188019,-0.791358
1980-01-06T00:25:13.966565307Z,1.939303,3.897760,7.964013,-0.011984,-0.100667,-0.775379
1980-01-06T00:25:13.986440412Z,1.935712,4.009091,8.227375,0.021838,-0.067245,-0.725311
1980-01-06T00:25:14.006318849Z,1.945289,4.060566,8.149862,0.062052,-0.012783,-0.730771
1980-01-06T00:25:14.026168745Z,1.879448,4.024653,8.178593,0.069242,-0.082025,-0.712661
1980-01-06T00:25:14.046036818Z,1.753753,3.946841,7.924808,0.043809,-0.122239,-0.703074
1980-01-06T00:25:14.085758224Z,1.569399,4.417302,7.709330,-0.037817,-0.088151,-0.633832
1980-01-06T00:25:14.105621089Z,1.441309,4.568137,7.699753,-0.076699,0.100534,-0.529436
1980-01-06T00:25:14.125512078Z,1.734599,4.701015,7.929596,-0.049535,0.394680,-0.540089
1980-01-06T00:25:14.145366766Z,1.866280,4.537012,8.250419,-0.032624,0.385359,-0.520914
1980-01-06T00:25:14.165267286Z,1.622072,4.289212,8.322245,-0.024368,0.256862,-0.558198
1980-01-06T00:25:14.185136089Z,1.434127,4.141969,8.427590,-0.068843,0.063117,-0.600809
1980-01-06T00:25:14.244723693Z,1.085770,4.412514,8.585608,-0.131161,-0.196807,-0.657268
1980-01-06T00:25:14.264597807Z,1.016339,4.301183,8.576031,-0.065514,-0.097738,-0.630636
1980-01-06T00:25:14.284460099Z,1.021127,4.295198,8.403648,-0.014381,0.000533,-0.607200
1980-01-06T00:25:14.304317182Z,1.058237,4.346673,8.221688,0.002397,0.010919,-0.581634
1980-01-06T00:25:14.324225620Z,1.061828,4.071340,8.063671,-0.017976,-0.030360,-0.586960
1980-01-06T00:25:14.344093432Z,0.998382,4.103662,8.054094,-0.083623,-0.046738,-0.602939
1980-01-06T00:25:14.403676661Z,0.817620,4.283227,8.135497,-0.069642,-0.011585,-0.540089
1980-01-06T00:25:14.423606401Z,0.744597,4.258088,8.121132,-0.083490,-0.048336,-0.491086
1980-01-06T00:25:14.443453849Z,0.602142,4.169502,8.049306,-0.109855,-0.013449,-0.472977
1980-01-06T00:25:14.463316297Z,0.693121,4.261679,8.116343,-0.128764,0.038083,-0.466585
1980-01-06T00:25:14.483184161Z,0.737414,4.347870,8.355764,-0.123304,0.037417,-0.430366
1980-01-06T00:25:14.503049891Z,0.685939,4.362236,8.250419,-0.062584,0.062717,-0.438889
1980-01-06T00:25:14.562647703Z,0.523133,4.292804,8.312668,-0.213053,0.044608,-0.388821
1980-01-06T00:25:14.582531505Z,0.587777,4.441244,8.638280,-0.166714,0.119709,-0.389886
1980-01-06T00:25:14.602434213Z,0.591368,4.411316,8.791509,-0.116114,0.138617,-0.390952
1980-01-06T00:25:14.622294734Z,0.514753,4.458004,8.619126,-0.065114,0.143411,-0.432497
1980-01-06T00:25:14.642124578Z,0.323217,4.198233,8.317456,-0.075101,0.047404,-0.442084
1980-01-06T00:25:14.662001661Z,0.065841,3.912126,8.350976,-0.149670,-0.005326,-0.437823
1980-01-06T00:25:14.701734161Z,-0.179565,4.331111,8.647857,-0.179231,0.003862,-0.380299
1980-01-06T00:25:14.721599474Z,-0.153229,4.242526,8.848969,-0.163118,0.056992,-0.368581
1980-01-06T00:25:14.741484005Z,-0.105345,4.188656,8.882488,-0.148871,0.069242,-0.344080
1980-01-06T00:25:14.761346140Z,-0.058658,4.337096,8.762778,-0.128897,0.108391,-0.331297
1980-01-06T00:25:14.781218536Z,-0.169988,4.516662,8.724471,-0.112119,0.115714,-0.318514
1980-01-06T00:25:14.801068536Z,-0.304064,4.298789,8.590396,-0.132758,0.085887,-0.298274
1980-01-06T00:25:14.860721609Z,-0.299275,4.426879,8.968679,-0.203332,0.064715,-0.230097
1980-01-06T00:25:14.880583640Z,-0.329203,4.000711,8.791509,-0.159124,0.043409,-0.214118
1980-01-06T00:25:14.900439422Z,-0.201113,3.696647,8.734048,-0.197873,0.065514,-0.198139
1980-01-06T00:25:14.920324526Z,-0.154426,3.930082,8.839393,-0.239684,0.090814,-0.176834
1980-01-06T00:25:14.940216192Z,-0.228646,4.126407,9.016563,-0.151267,0.118244,-0.178964
1980-01-06T00:25:14.960033120Z,-0.276530,3.762488,8.748413,-0.077498,0.147406,-0.168312
1980-01-06T00:25:14.999773901Z,-0.189142,4.072537,8.576031,-0.146074,0.224105,-0.167246
1980-01-06T00:25:15.019705724Z,-0.222661,3.969586,8.714894,-0.176701,0.171507,-0.166181
1980-01-06T00:25:15.039545567Z,-0.244209,3.744531,8.839393,-0.191215,0.177100,-0.172573
1980-01-06T00:25:15.059398901Z,-0.318429,3.790021,8.810662,-0.150735,0.230630,-0.183225
1980-01-06T00:25:15.079319005Z,-0.398635,3.974375,8.690952,-0.083091,0.315052,-0.205596
1980-01-06T00:25:15.099153172Z,-0.476446,3.891775,8.667010,-0.071772,0.345811,-0.235423
1980-01-06T00:25:15.119048744Z,-0.659603,3.865439,8.705317,-0.120375,0.271509,-0.223705
1980-01-06T00:25:15.158778067Z,-0.826000,3.685874,8.781932,-0.163252,0.247274,-0.187486
1980-01-06T00:25:15.178612651Z,-0.785298,3.611653,8.887277,-0.187087,0.234225,-0.162985
1980-01-06T00:25:15.198487807Z,-0.854730,3.657143,9.131485,-0.193345,0.238486,-0.140615
1980-01-06T00:25:15.218400567Z,-0.919373,3.697845,9.126697,-0.170575,0.300804,-0.148072
1980-01-06T00:25:15.238220515Z,-0.901417,3.675100,9.131485,-0.178432,0.308127,-0.159790
1980-01-06T00:25:15.258090567Z,-0.888249,3.442862,9.174581,-0.183758,0.252068,-0.165116
1980-01-06T00:25:15.317747807Z,-1.272518,3.284845,9.251195,-0.215050,-0.000666,-0.177899
1980-01-06T00:25:15.337576192Z,-1.358709,3.013103,9.141062,-0.217181,-0.032357,-0.186421
1980-01-06T00:25:15.357446661Z,-1.282095,2.869451,9.035717,-0.227034,0.002929,-0.171507
1980-01-06T00:25:15.377335463Z,-1.272518,3.009511,8.901642,-0.232627,0.015979,-0.151267
1980-01-06T00:25:15.397171661Z,-1.169568,2.806004,8.906430,-0.232494,-0.007457,-0.131027
1980-01-06T00:25:15.417055255Z,-1.036689,2.682703,8.892065,-0.251535,0.056193,-0.132093
1980-01-06T00:25:15.437150723Z,-1.016339,2.964022,9.097966,-0.236355,0.063117,-0.121440
1980-01-06T00:25:15.476707546Z,-1.236605,2.850297,9.297583,-0.066579,-0.001997,-0.173638
1980-01-06T00:25:15.496537703Z,-1.247379,2.741361,9.096470,-0.047937,0.012117,-0.230097
1980-01-06T00:25:15.516443119Z,-1.283292,3.019088,8.962395,-0.055394,-0.035686,-0.265251
1980-01-06T00:25:15.536272338Z,-1.204283,3.122039,9.187449,-0.086020,-0.072038,-0.245011
1980-01-06T00:25:15.556176661Z,-1.191115,2.990358,9.346964,-0.141946,-0.046605,-0.202400
1980-01-06T00:25:15.576035671Z,-1.203086,3.118448,9.476251,-0.173505,-0.041945,-0.172573
1980-01-06T00:25:15.615975515Z,-1.367089,2.924517,9.270349,-0.200802,-0.026232,-0.159790
1980-01-06T00:25:15.635644161Z,-1.353921,2.890999,9.299079,-0.258992,-0.008389,-0.108657
1980-01-06T00:25:15.655534057Z,-1.374272,2.774880,9.437943,-0.245410,0.025833,-0.094808
1980-01-06T00:25:15.675346244Z,-1.341950,2.626439,9.433155,-0.257394,0.049535,-0.085221
1980-01-06T00:25:15.695443171Z,-1.297657,2.610877,9.346964,-0.237687,0.086420,-0.094808
1980-01-06T00:25:15.715140880Z,-1.303643,2.576161,9.342175,-0.232361,0.089216,-0.085221
1980-01-06T00:25:15.774725098Z,-1.371878,2.677915,9.433155,-0.182560,0.117445,-0.094808
1980-01-06T00:25:15.794610515Z,-1.368286,2.615665,9.385271,-0.180562,0.122239,-0.102265
1980-01-06T00:25:15.814458328Z,-1.405396,2.693477,9.466674,-0.196941,0.072438,-0.091613
1980-01-06T00:25:15.834329630Z,-1.510741,2.589329,9.457097,-0.152865,0.059655,-0.102265
1980-01-06T00:25:15.854217963Z,-1.607706,2.454057,9.332599,-0.118777,0.091746,-0.112918
1980-01-06T00:25:15.873671088Z,-1.704672,2.264915,9.217676,-0.115847,0.078696,-0.094808
1980-01-06T00:25:15.933712702Z,-1.733402,2.347515,9.088389,-0.217047,0.099469,-0.050067
1980-01-06T00:25:15.953546296Z,-1.781286,2.369063,9.255983,-0.243413,0.051399,-0.033023
1980-01-06T00:25:15.973448952Z,-1.769315,2.324770,9.500193,-0.260856,-0.003595,0.008522
1980-01-06T00:25:15.993275359Z,-1.772906,2.217031,9.165004,-0.239551,0.035553,-0.007457
1980-01-06T00:25:16.013387338Z,-1.765724,2.044648,9.289502,-0.276969,0.046605,0.007457
1980-01-06T00:25:16.033238432Z,-1.816002,2.024297,9.165004,-0.331830,0.064582,0.017044
1980-01-06T00:25:16.072789213Z,-1.713051,2.105700,9.677363,-0.314120,0.058989,0.010653
1980-01-06T00:25:16.092632286Z,-1.369483,1.863886,9.701305,-0.286556,-0.071106,-0.051133
1980-01-06T00:25:16.112517234Z,-1.264138,1.902193,9.734824,-0.294146,-0.310391,-0.075634
1980-01-06T00:25:16.132352650Z,-1.526304,1.844732,9.715671,-0.242347,-0.347542,-0.084156
1980-01-06T00:25:16.152235515Z,-1.812411,1.608904,9.567230,-0.159656,-0.114649,-0.047937
1980-01-06T00:25:16.172149004Z,-2.007538,1.576582,9.126697,-0.131826,0.139683,0.007457
1980-01-06T00:25:16.231899525Z,-1.507150,1.578976,9.461885,-0.292149,-0.021172,0.035154
1980-01-06T00:25:16.251622494Z,-1.581370,1.526304,9.715671,-0.321044,-0.120508,0.043676
1980-01-06T00:25:16.271447807Z,-1.715446,1.483208,9.749189,-0.303334,-0.121041,0.077764
1980-01-06T00:25:16.291341400Z,-1.657985,1.455675,9.844957,-0.240350,0.000000,0.050067
1980-01-06T00:25:16.311262702Z,-1.795651,1.377863,9.734824,-0.176301,0.014115,0.076699
1980-01-06T00:25:16.331088171Z,-1.806425,1.146823,9.562442,-0.166980,-0.000932,0.075634
1980-01-06T00:25:16.390687181Z,-1.659182,1.236605,9.667787,-0.264585,-0.341151,0.075634
1980-01-06T00:25:16.410600411Z,-1.777695,1.240196,9.490616,-0.205862,-0.187087,0.074568
1980-01-06T00:25:16.430430567Z,-1.529895,1.066617,9.481039,-0.195609,-0.099336,0.098004
1980-01-06T00:25:16.450304577Z,-1.369483,1.119289,9.552865,-0.228898,-0.036485,0.104396
1980-01-06T00:25:16.470167911Z,-1.335965,1.108515,9.715671,-0.206528,-0.085088,0.120375
1980-01-06T00:25:16.490235359Z,-1.646014,0.991199,9.557653,-0.216648,-0.142878,0.157659
1980-01-06T00:25:16.549685358Z,-1.459266,0.955287,9.653421,-0.209990,-0.025300,0.267381
1980-01-06T00:25:16.569525098Z,-1.373075,0.968455,9.639056,-0.181361,-0.051532,0.282295
1980-01-06T00:25:16.589369525Z,-1.310825,0.743400,9.653421,-0.177500,-0.096673,0.292947
1980-01-06T00:25:16.609247286Z,-1.246182,0.687136,9.749189,-0.186821,-0.104795,0.299339
1980-01-06T00:25:16.629142963Z,-1.071405,0.634463,9.739613,-0.183891,-0.065913,0.290817
1980-01-06T00:25:16.688737025Z,-1.133654,0.733823,9.524135,-0.098670,0.072837,0.294013
1980-01-06T00:25:16.708597754Z,-0.913388,0.435745,9.442732,-0.156727,0.097605,0.278034
1980-01-06T00:25:16.728483431Z,-0.991199,0.590171,9.634268,-0.213319,0.079762,0.284425
1980-01-06T00:25:16.748347338Z,-1.053449,0.689530,9.682152,-0.217846,0.089482,0.276969
1980-01-06T00:25:16.768218900Z,-1.112107,0.727837,9.816227,-0.178432,0.121174,0.246076
1980-01-06T00:25:16.788064056Z,-1.108515,0.586579,9.955091,-0.161521,0.077232,0.259924
1980-01-06T00:25:16.847707650Z,-1.174356,0.379481,10.151415,-0.191881,0.106393,0.247141
1980-01-06T00:25:16.867576244Z,-1.115698,0.342371,10.194510,-0.205063,0.107192,0.255663
1980-01-06T00:25:16.887646921Z,-0.851139,0.354342,10.496181,-0.182160,0.072172,0.248206
1980-01-06T00:25:16.907315931Z,-0.781707,0.233435,10.566510,-0.136487,0.031958,0.254598
1980-01-06T00:25:16.927181140Z,-0.946907,0.034716,10.571299,-0.126367,0.117978,0.224771
1980-01-06T00:25:16.947072390Z,-0.784101,0.039504,10.724527,-0.161521,0.165249,0.217314
1980-01-06T00:25:16.986785150Z,-0.905008,0.058658,10.729316,-0.056992,0.102265,0.196008
1980-01-06T00:25:17.006693275Z,-0.773327,0.077812,10.509049,0.010120,0.133158,0.138484
1980-01-06T00:25:17.026521660Z,-0.967257,0.144849,10.365397,0.048469,0.025966,0.132093
1980-01-06T00:25:17.046485098Z,-1.222240,0.110133,10.039785,0.062451,0.006525,0.108657
1980-01-06T00:25:17.066274577Z,-1.290475,0.197522,9.905710,0.059788,0.037417,0.093743
1980-01-06T00:25:17.086168535Z,-1.241394,0.183156,9.819519,0.049535,0.018509,0.106526
1980-01-06T00:25:17.106050671Z,-1.228225,0.320823,9.680655,0.068044,0.021305,0.106526
1980-01-06T00:25:17.145767598Z,-0.957681,0.215478,9.537004,0.062984,-0.091613,0.088417
1980-01-06T00:25:17.165661296Z,-0.948104,0.158017,9.498696,0.041146,-0.099336,0.078829
1980-01-06T00:25:17.185681139Z,-0.948104,0.064643,9.364620,0.022903,-0.040879,0.072438
1980-01-06T00:25:17.205549004Z,-0.972046,0.095768,9.407717,0.038349,0.003329,0.022371
1980-01-06T00:25:17.225428848Z,-1.013944,0.067038,9.302371,-0.018908,-0.027830,0.034088
1980-01-06T00:25:17.245096712Z,-0.931344,0.168791,9.450812,-0.014115,-0.027697,0.009587
1980-01-06T00:25:17.265018379Z,-0.859518,0.141258,9.378986,0.018109,-0.050600,-0.026632
1980-01-06T00:25:17.304721660Z,-1.028310,0.158017,9.220968,0.013715,-0.052997,-0.060720
1980-01-06T00:25:17.324598171Z,-1.070208,0.141258,9.206603,-0.003196,-0.023436,-0.083091
1980-01-06T00:25:17.344509577Z,-1.120486,0.266953,9.283217,-0.020107,-0.047937,-0.080960
1980-01-06T00:25:17.364360723Z,-1.201889,0.396240,9.297583,0.034887,-0.067112,-0.074568
1980-01-06T00:25:17.384244785Z,-1.174356,0.277727,9.244910,0.083224,-0.084289,-0.074568
1980-01-06T00:25:17.404063066Z,-0.919373,0.128090,9.134777,0.053396,-0.099868,-0.103331
1980-01-06T00:25:17.463670983Z,-1.201889,0.525527,8.852262,0.133957,-0.226502,-0.045806
1980-01-06T00:25:17.483544108Z,-0.852336,0.423774,8.483555,0.101999,-0.125568,-0.154463
1980-01-06T00:25:17.503420931Z,-0.820014,0.707487,8.796297,0.078829,-0.306130,-0.122505
1980-01-06T00:25:17.523291712Z,-1.272518,0.635661,8.724471,0.074036,-0.414654,-0.066046
1980-01-06T00:25:17.543160619Z,-1.215057,0.468066,8.978256,0.068310,-0.286156,-0.050067
1980-01-06T00:25:17.563025150Z,-0.816423,0.383072,9.021352,0.004527,-0.155129,-0.139550
1980-01-06T00:25:17.602851816Z,-1.011550,0.685939,9.557653,-0.048736,-0.350738,-0.077764
1980-01-06T00:25:17.622690618Z,-1.224634,0.774524,10.012551,0.032890,-0.328101,0.008522
1980-01-06T00:25:17.642724889Z,-1.194707,0.616507,9.835381,0.134889,-0.313986,0.047937
1980-01-06T00:25:17.662378223Z,-1.209072,0.195127,9.682152,0.080827,-0.212121,0.038349
1980-01-06T00:25:17.682244837Z,-0.374693,0.515950,10.204087,0.121973,-0.075101,-0.068177
1980-01-06T00:25:17.702129473Z,-0.171185,0.772130,10.840945,0.225303,-0.233692,-0.082025
1980-01-06T00:25:17.761740671Z,-0.489614,0.355539,9.586384,-0.059522,0.146207,-0.096939
1980-01-06T00:25:17.781579525Z,-0.708684,0.946907,10.041282,-0.121174,-0.036885,-0.041545
1980-01-06T00:25:17.801499837Z,-0.916979,0.582988,9.902418,-0.202533,-0.131560,0.047937
1980-01-06T00:25:17.821331920Z,-0.945710,0.509965,9.768343,-0.247274,-0.059388,0.023436
1980-01-06T00:25:17.841199733Z,-0.749385,0.659603,9.763555,-0.306396,-0.120907,0.104396
1980-01-06T00:25:17.861079785Z,-0.530316,0.656011,9.629479,-0.348208,-0.123304,0.136354
1980-01-06T00:25:17.940776920Z,0.147243,0.295684,9.830592,-0.158458,-0.017444,-0.008522
1980-01-06T00:25:17.960435931Z,-0.005986,0.272939,9.792285,-0.421978,-0.009854,-0.033023
1980-01-06T00:25:17.980312129Z,0.132878,-1.151611,9.883265,-0.369247,0.007457,-0.009587
1980-01-06T00:25:18.000373275Z,0.057461,0.126893,9.835381,-0.145408,-0.009454,0.023436
1980-01-06T00:25:18.020011243Z,-0.110133,-0.493206,9.734824,-0.117845,-0.003728,0.035154
1980-01-06T00:25:18.059750514Z,0.010774,-0.204704,9.734824,-0.014115,-0.011052,-0.012783
1980-01-06T00:25:18.079642285Z,0.118513,-0.203507,9.950302,0.057524,0.035686,0.003196
1980-01-06T00:25:18.099566191Z,-0.235829,-0.201113,9.653421,0.114516,-0.019042,-0.020240
1980-01-06T00:25:18.119398118Z,0.084994,0.539892,10.017340,0.017444,-0.003063,-0.012783
1980-01-06T00:25:18.139286139Z,0.026336,-0.055067,9.787497,0.040746,-0.007723,-0.012783
1980-01-06T00:25:18.159143795Z,-0.049081,-0.331597,9.691729,0.018376,-0.009987,-0.012783
1980-01-06T00:25:18.218767962Z,0.000000,-0.205901,9.715671,-0.009055,-0.008256,-0.013848
1980-01-06T00:25:18.238627285Z,-0.013168,-0.175974,9.730036,-0.006658,-0.007723,-0.013848
1980-01-06T00:25:18.258500514Z,-0.005986,-0.167594,9.730036,-0.004128,-0.008922,-0.013848
1980-01-06T00:25:18.278355045Z,-0.005986,-0.168791,9.739613,-0.001731,-0.007856,-0.013848
1980-01-06T00:25:18.298268118Z,-0.004788,-0.190339,9.730036,-0.001997,-0.008922,-0.012783
1980-01-06T00:25:18.318080618Z,-0.015562,-0.186748,9.739613,-0.001731,-0.008922,-0.013848
1980-01-06T00:25:18.377703014Z,-0.009577,-0.191536,9.730036,-0.003462,-0.008123,-0.013848
1980-01-06T00:25:18.397592910Z,0.003591,-0.196325,9.706094,-0.003862,-0.008256,-0.013848
1980-01-06T00:25:18.417430931Z,-0.025139,-0.183156,9.715671,-0.003462,-0.007723,-0.013848
1980-01-06T00:25:18.437291243Z,-0.004788,-0.179565,9.730036,-0.001332,-0.007856,-0.013848
1980-01-06T00:25:18.457163483Z,0.032322,-0.171185,9.931149,-0.004927,-0.006924,-0.014914
