timestamp,accel_x,accel_y,accel_z,gyro_x,gyro_y,gyro_z
1980-01-06T00:06:13.404197357Z,-0.088585,-0.118513,9.706991,0.000000,0.000000,-0.000932
1980-01-06T00:06:13.443631940Z,0.014365,-0.252588,9.779117,-0.004927,-0.006258,0.003728
1980-01-06T00:06:13.463501367Z,-0.005986,-0.254982,9.664195,-0.004261,-0.008522,-0.015446
1980-01-06T00:06:13.503238972Z,-0.009577,-0.174777,9.771635,-0.004261,-0.007457,-0.014914
1980-01-06T00:06:13.523075534Z,-0.041899,-0.160412,9.723751,-0.004927,-0.007723,-0.013848
1980-01-06T00:06:13.582707513Z,-0.019154,-0.153229,9.728839,-0.001332,-0.007590,-0.012783
1980-01-06T00:06:13.602580742Z,-0.022745,-0.164003,9.752781,-0.002397,-0.006924,-0.013848
1980-01-06T00:06:13.622461524Z,-0.047884,-0.189142,9.771935,-0.002397,-0.008123,-0.013848
1980-01-06T00:06:13.642304857Z,-0.038307,-0.191536,9.714474,-0.002663,-0.007590,-0.013848
1980-01-06T00:06:13.662140222Z,-0.027533,-0.193930,9.738416,-0.002264,-0.008256,-0.013848
1980-01-06T00:06:13.682054076Z,-0.008380,-0.190339,9.728839,-0.001997,-0.008922,-0.013848
1980-01-06T00:06:13.721773399Z,-0.034716,-0.168791,9.747993,-0.002796,-0.007057,-0.013848
1980-01-06T00:06:13.741654701Z,-0.037110,-0.185551,9.717167,-0.003063,-0.007856,-0.013848
1980-01-06T00:06:13.761519961Z,-0.023942,-0.173580,9.726744,-0.002796,-0.008522,-0.014914
1980-01-06T00:06:13.781394805Z,0.014365,-0.175974,9.731532,-0.002663,-0.007856,-0.013848
1980-01-06T00:06:13.801266888Z,-0.015562,-0.187945,9.726744,-0.002264,-0.007191,-0.013848
1980-01-06T00:06:13.821159128Z,-0.031125,-0.186748,9.731532,-0.001332,-0.007590,-0.012783
1980-01-06T00:06:13.840989440Z,-0.017957,-0.178368,9.749189,-0.001598,-0.008256,-0.013848
1980-01-06T00:06:13.860825221Z,-0.035913,-0.190339,9.730036,-0.002929,-0.007989,-0.013848
1980-01-06T00:06:13.880739284Z,-0.021548,-0.169988,9.730036,-0.001198,-0.007723,-0.014914
1980-01-06T00:06:13.900584544Z,-0.005986,-0.185551,9.725247,-0.001465,-0.007989,-0.013848
1980-01-06T00:06:13.920442982Z,-0.011971,-0.171185,9.739613,-0.002663,-0.007723,-0.013848
1980-01-06T00:06:13.940316471Z,-0.007183,-0.167594,9.753978,-0.002264,-0.007057,-0.013848
1980-01-06T00:06:13.960179336Z,-0.015562,-0.177171,9.739613,-0.001465,-0.007989,-0.013848
1980-01-06T00:06:13.980056419Z,-0.025139,-0.180762,9.725247,-0.002264,-0.006658,-0.013848
1980-01-06T00:06:14.019785534Z,-0.037110,-0.192733,9.717167,-0.002796,-0.008389,-0.014914
1980-01-06T00:06:14.039665846Z,-0.014365,-0.146046,9.719262,-0.007590,-0.014115,-0.017044
1980-01-06T00:06:14.059519701Z,-0.013168,-0.144849,9.781511,0.003862,-0.007723,-0.014914
1980-01-06T00:06:14.079391211Z,-0.023942,-0.187945,9.704897,0.005060,-0.007590,-0.013848
1980-01-06T00:06:14.099280273Z,0.001197,-0.208296,9.714474,0.004261,-0.008922,-0.011718
1980-01-06T00:06:14.119281107Z,-0.027533,-0.164003,9.712379,0.000799,-0.007989,-0.013848
1980-01-06T00:06:14.139007201Z,0.089783,-0.219069,9.719262,0.006125,-0.012117,-0.011718
1980-01-06T00:06:14.178767878Z,-0.082600,-0.124498,9.743204,-0.008655,-0.004794,-0.011718
1980-01-06T00:06:14.198621836Z,0.035913,-0.034716,9.504682,0.002530,-0.008522,0.018642
1980-01-06T00:06:14.218479440Z,-0.359130,0.363919,9.815928,0.014248,-0.018243,0.274305
1980-01-06T00:06:14.238376992Z,-0.418985,0.092177,9.878177,0.052997,-0.009055,0.429834
1980-01-06T00:06:14.258210169Z,0.189142,-0.426168,9.638757,-0.022903,-0.006658,0.320112
1980-01-06T00:06:14.278083555Z,0.824802,-0.620098,9.671378,-0.013449,-0.003462,0.210922
1980-01-06T00:06:14.337685742Z,-0.025139,-0.186748,9.670180,0.019841,-0.003196,0.009055
1980-01-06T00:06:14.357555950Z,-0.034716,-0.245406,9.737218,0.021971,-0.001997,0.014381
1980-01-06T00:06:14.377436419Z,-0.047884,-0.323217,9.762058,0.026498,-0.006924,0.041545
1980-01-06T00:06:14.397272878Z,-0.039504,-0.263362,9.747693,0.039681,-0.010786,0.075634
1980-01-06T00:06:14.417196055Z,-0.071826,-0.137667,9.685444,0.012517,-0.008123,0.115048
1980-01-06T00:06:14.437037044Z,0.008380,-0.116119,9.771635,0.013183,-0.004927,0.059655
1980-01-06T00:06:14.476784648Z,-0.056264,-0.093374,9.771635,0.009987,-0.004661,0.071373
1980-01-06T00:06:14.496651836Z,-0.093374,0.002394,9.757270,0.003728,-0.001198,0.060720
1980-01-06T00:06:14.516509857Z,0.051475,-0.300472,9.705794,-0.021039,0.004527,0.108124
1980-01-06T00:06:14.536355117Z,-0.033519,-0.189142,9.724948,-0.003329,0.013049,0.101733
1980-01-06T00:06:14.556250065Z,-0.027533,-0.256180,9.768044,0.001864,0.034355,0.080427
1980-01-06T00:06:14.576103659Z,-0.071826,-0.351948,9.552566,-0.040347,0.015446,0.103863
1980-01-06T00:06:14.596016680Z,-0.034716,-0.184354,9.814731,-0.013449,0.025167,0.102265
1980-01-06T00:06:14.635722930Z,0.002394,-0.258574,9.781212,0.005593,0.177899,0.005326
1980-01-06T00:06:14.655583919Z,0.045490,-0.247800,9.728539,0.046605,0.182027,-0.041545
1980-01-06T00:06:14.675433971Z,-0.023942,-0.150835,9.724051,0.089216,0.185090,-0.075634
1980-01-06T00:06:14.695325325Z,-0.307655,-0.187945,9.805453,0.109190,0.190549,-0.071373
1980-01-06T00:06:14.715187773Z,-0.311246,-0.104148,9.757569,0.143677,0.206262,-0.046872
1980-01-06T00:06:14.735034804Z,-0.232238,-0.234632,9.719262,0.172839,0.156327,-0.058589
1980-01-06T00:06:14.774785325Z,-0.440533,0.088585,9.762358,-0.062851,-0.071905,0.044741
1980-01-06T00:06:14.794662044Z,-0.413000,0.038307,9.704897,-0.006392,-0.031425,0.039415
1980-01-06T00:06:14.814524596Z,-0.414197,-0.022745,9.906010,0.001198,0.035021,0.003196
1980-01-06T00:06:14.834385221Z,-0.271742,0.104148,10.036493,0.009987,-0.034355,0.033023
1980-01-06T00:06:14.854253867Z,-0.219069,0.004788,9.825804,-0.004394,-0.101600,0.023436
1980-01-06T00:06:14.874128711Z,-0.288501,0.025139,9.901221,-0.036352,-0.143411,0.008522
1980-01-06T00:06:14.894001627Z,-0.260968,0.153229,9.921572,-0.021572,-0.130628,0.027697
1980-01-06T00:06:14.933725221Z,-0.074220,0.045490,9.870096,0.000000,-0.029428,0.013316
1980-01-06T00:06:14.953608606Z,0.086191,0.081403,10.056845,-0.011585,-0.085088,0.005859
1980-01-06T00:06:14.973473294Z,0.118513,0.040701,9.922769,0.000799,-0.143944,-0.014381
1980-01-06T00:06:14.993347825Z,0.446519,-0.065841,10.272323,0.246875,-0.063250,-0.153931
1980-01-06T00:06:15.013255534Z,0.367510,0.168791,10.612299,0.047404,-0.124503,-0.142213
1980-01-06T00:06:15.033081836Z,0.226252,0.033519,9.937433,-0.030360,-0.181894,-0.112918
1980-01-06T00:06:15.072812200Z,0.053870,0.131681,10.196007,0.196008,-0.072172,-0.222640
1980-01-06T00:06:15.092706992Z,0.140061,-0.220267,9.487324,0.150468,-0.092012,-0.168312
1980-01-06T00:06:15.112558450Z,0.616507,-0.135272,9.755474,0.307462,-0.051665,-0.302535
1980-01-06T00:06:15.132386002Z,0.260968,-0.051475,10.115502,0.286822,-0.056193,-0.316916
1980-01-06T00:06:15.152303033Z,0.468066,-0.146046,9.885659,0.197606,-0.005593,-0.335025
1980-01-06T00:06:15.172151731Z,0.355539,-0.205901,9.751583,0.245943,-0.022504,-0.346743
1980-01-06T00:06:15.192050690Z,0.368707,0.077812,10.110714,0.165782,-0.094010,-0.364853
1980-01-06T00:06:15.231753815Z,-0.100556,0.094571,9.698013,0.149536,-0.122106,-0.285491
1980-01-06T00:06:15.251640377Z,-0.028730,0.165200,9.587880,0.152333,-0.089748,-0.304665
1980-01-06T00:06:15.271475950Z,-0.003591,0.216675,9.770737,0.119975,-0.117578,-0.319046
1980-01-06T00:06:15.291364804Z,-0.100556,0.305261,9.699809,0.104795,-0.151134,-0.298274
1980-01-06T00:06:15.311213242Z,-0.065841,0.278924,9.522638,0.111187,-0.173505,-0.286556
1980-01-06T00:06:15.331120429Z,-0.112527,0.421380,9.695021,0.161521,-0.164983,-0.301470
1980-01-06T00:06:15.370818554Z,-0.131681,0.373495,9.552566,0.146740,-0.086952,-0.245543
1980-01-06T00:06:15.410563763Z,0.032322,0.515950,9.763255,0.167779,-0.162719,-0.232760
1980-01-06T00:06:15.430457669Z,-0.038307,0.614113,9.614815,0.148737,-0.167646,-0.225303
1980-01-06T00:06:15.450301940Z,0.055067,0.661997,9.576508,0.113184,-0.121973,-0.216781
1980-01-06T00:06:15.470164752Z,0.035913,0.781707,9.570822,0.102665,-0.085221,-0.216248
1980-01-06T00:06:15.490039388Z,0.075417,0.754174,9.420286,0.107858,-0.053663,-0.189617
1980-01-06T00:06:15.529803398Z,0.106542,0.946907,9.599552,0.021438,-0.129430,-0.154463
1980-01-06T00:06:15.549662148Z,0.177171,0.900220,9.527725,0.055394,-0.113983,-0.170442
1980-01-06T00:06:15.569510742Z,0.186748,0.808043,9.446322,0.080561,-0.058856,-0.176834
1980-01-06T00:06:15.589355169Z,0.295684,0.823605,9.549573,0.068976,-0.066046,-0.183225
1980-01-06T00:06:15.609310169Z,0.281319,0.920571,9.506477,0.060587,-0.099203,-0.177899
1980-01-06T00:06:15.629120533Z,0.220267,0.852336,9.324518,0.053929,-0.065381,-0.171507
1980-01-06T00:06:15.649000481Z,0.227449,0.890643,9.372402,0.036219,-0.022903,-0.176834
1980-01-06T00:06:15.688737877Z,0.313640,0.932542,9.477747,0.030227,0.080028,-0.159790
1980-01-06T00:06:15.708601471Z,0.424971,0.895431,9.587880,0.050866,0.094542,-0.200270
1980-01-06T00:06:15.728465065Z,0.410606,0.778116,9.511266,-0.003063,-0.016645,-0.193878
1980-01-06T00:06:15.748338762Z,0.216675,0.915782,9.731532,-0.020639,-0.036352,-0.185356
1980-01-06T00:06:15.768222721Z,0.041899,1.012747,9.575311,0.053796,0.098670,-0.200270
1980-01-06T00:06:15.788064492Z,0.135272,0.912191,9.479543,0.056725,0.202267,-0.208792
1980-01-06T00:06:15.827817304Z,0.201113,1.005565,9.604041,-0.036086,-0.029028,-0.159790
1980-01-06T00:06:15.847692825Z,0.088585,1.061828,9.699809,-0.036618,-0.013848,-0.140615
1980-01-06T00:06:15.867549387Z,0.137667,0.963666,9.656713,0.021572,0.059921,-0.140615
1980-01-06T00:06:15.887466523Z,0.246603,0.827197,9.592669,-0.000133,0.046206,-0.140615
1980-01-06T00:06:15.907298033Z,0.202310,0.866701,9.674071,-0.056992,-0.017311,-0.135288
1980-01-06T00:06:15.927133919Z,0.158017,0.966060,9.851242,-0.038882,-0.011052,-0.126766
1980-01-06T00:06:15.986771991Z,0.272939,0.793678,9.808146,0.015313,0.063250,-0.168312
1980-01-06T00:06:16.006614127Z,0.239420,0.833182,9.947010,0.011718,0.002397,-0.181095
1980-01-06T00:06:16.026468085Z,0.184354,0.930147,9.903914,0.035287,-0.046872,-0.188552
1980-01-06T00:06:16.046339648Z,0.160412,0.913388,9.698013,0.088550,0.017843,-0.204531
1980-01-06T00:06:16.066212564Z,0.183156,0.936133,9.618706,0.136886,0.053130,-0.204531
1980-01-06T00:06:16.086079596Z,0.204704,0.878672,9.717167,0.125834,0.049934,-0.218379
1980-01-06T00:06:16.145704023Z,0.343568,0.864307,9.803358,0.102398,0.012384,-0.245011
1980-01-06T00:06:16.165574023Z,0.253785,0.991199,9.752781,0.108257,-0.052864,-0.252467
1980-01-06T00:06:16.185434283Z,0.090980,1.066617,9.894338,0.100401,-0.030360,-0.252467
1980-01-06T00:06:16.205343293Z,0.138864,1.031901,9.743204,0.112518,0.015047,-0.256729
1980-01-06T00:06:16.225174908Z,0.168791,0.991199,9.635764,0.046738,0.019707,-0.250337
1980-01-06T00:06:16.245038606Z,0.186748,1.061828,9.683648,0.057125,-0.028496,-0.263120
1980-01-06T00:06:16.284778346Z,0.264559,1.071405,9.578303,0.093344,-0.038616,-0.280164
1980-01-06T00:06:16.304629491Z,0.069432,1.084573,9.618706,0.058989,0.012117,-0.262055
1980-01-06T00:06:16.324503085Z,0.178368,1.023521,9.666590,0.068044,0.012783,-0.273773
1980-01-06T00:06:16.344384439Z,0.094571,1.122881,9.566033,0.069242,-0.002397,-0.284425
1980-01-06T00:06:16.364246054Z,0.063446,1.022324,9.449017,-0.010386,0.008389,-0.254598
1980-01-06T00:06:16.384102929Z,0.320823,1.249773,9.832987,0.065114,0.096273,-0.292415
1980-01-06T00:06:16.443723970Z,0.300472,1.286883,9.899126,-0.010519,-0.087485,-0.294013
1980-01-06T00:06:16.463597877Z,0.122104,1.211466,9.900024,-0.064049,-0.197074,-0.290284
1980-01-06T00:06:16.483451366Z,-0.057461,1.221043,9.894338,-0.057391,-0.105727,-0.298274
1980-01-06T00:06:16.503341262Z,-0.102951,1.227028,10.085874,-0.075367,0.009721,-0.306796
1980-01-06T00:06:16.523191418Z,-0.040701,1.128866,10.181642,0.043409,0.102398,-0.331297
1980-01-06T00:06:16.543070325Z,-0.044293,1.183933,9.985317,-0.024901,0.059255,-0.287621
1980-01-06T00:06:16.582810845Z,-0.204704,1.195904,9.717167,-0.030893,-0.085887,-0.290817
1980-01-06T00:06:16.602676523Z,-0.373495,1.127669,9.659706,-0.069375,-0.012251,-0.262055
1980-01-06T00:06:16.622545533Z,-0.318429,1.194707,9.870396,-0.078563,0.063649,-0.245011
1980-01-06T00:06:16.642412356Z,-0.144849,1.322796,9.966164,0.003063,0.060321,-0.260990
1980-01-06T00:06:16.662285220Z,-0.136469,1.131260,9.580399,0.040879,-0.035021,-0.269512
1980-01-06T00:06:16.682133970Z,-0.213084,1.146823,9.502586,-0.018376,-0.083623,-0.274305
1980-01-06T00:06:16.741757512Z,-0.377087,1.139640,9.698911,-0.074835,0.083756,-0.237021
1980-01-06T00:06:16.761599075Z,-0.373495,1.168370,9.742006,-0.057657,0.087618,-0.225303
1980-01-06T00:06:16.781478658Z,-0.308852,1.131260,9.914390,-0.035953,0.028496,-0.215716
1980-01-06T00:06:16.801333293Z,-0.402226,1.146823,9.757270,-0.013715,-0.038216,-0.209857
1980-01-06T00:06:16.821238033Z,-0.559046,1.182736,9.666290,-0.023303,-0.035819,-0.190682
1980-01-06T00:06:16.841084022Z,-0.482432,1.218649,9.604041,0.005859,0.031159,-0.207726
1980-01-06T00:06:16.880826106Z,-0.670376,1.119289,9.348460,0.013715,-0.070973,-0.136354
1980-01-06T00:06:16.900697252Z,-0.477643,1.049857,9.410709,-0.000266,0.069908,-0.139550
1980-01-06T00:06:16.920548606Z,-0.378284,1.140837,9.482535,0.024501,0.226235,-0.149137
1980-01-06T00:06:16.940426158Z,-0.301669,1.091756,9.683648,0.035154,0.206128,-0.160855
1980-01-06T00:06:16.960285585Z,-0.189142,1.174356,9.832088,-0.021705,-0.048070,-0.161920
1980-01-06T00:06:16.980163658Z,-0.409408,1.121683,9.653421,-0.068710,-0.261123,-0.148072
1980-01-06T00:06:17.000005220Z,-0.603339,1.169568,9.674071,-0.071373,-0.227434,-0.121440
1980-01-06T00:06:17.039777824Z,-0.276530,1.096544,9.755474,0.045939,0.237421,-0.094808
1980-01-06T00:06:17.059633085Z,-0.169988,0.988805,9.913491,0.058989,0.279365,-0.100135
1980-01-06T00:06:17.079505012Z,-0.008380,0.915782,10.047566,-0.003995,0.136753,-0.124636
1980-01-06T00:06:17.099386262Z,-0.122104,1.089362,9.970952,-0.025167,-0.015713,-0.178964
1980-01-06T00:06:17.119238293Z,-0.374693,1.083376,9.774628,-0.071772,-0.096540,-0.155528
1980-01-06T00:06:17.139124335Z,-0.450110,1.059434,9.698013,-0.085621,0.034222,-0.139550
1980-01-06T00:06:17.198720637Z,-0.529119,1.029507,9.787497,-0.005326,0.215183,-0.149137
1980-01-06T00:06:17.218577043Z,-0.547075,1.126472,9.793482,-0.068310,0.078031,-0.136886
1980-01-06T00:06:17.238447564Z,-0.705092,1.124078,9.702502,-0.097738,-0.003595,-0.085754
1980-01-06T00:06:17.258329439Z,-0.757765,1.053449,9.696218,-0.071639,0.112652,-0.100667
1980-01-06T00:06:17.278200533Z,-0.811634,1.180341,9.830293,-0.005859,0.197473,-0.071905
1980-01-06T00:06:17.298058606Z,-0.764947,1.031901,9.614815,0.024501,0.256063,-0.043143
1980-01-06T00:06:17.337795585Z,-0.387861,1.152808,10.309134,-0.015979,-0.020506,-0.052731
1980-01-06T00:06:17.357631678Z,-0.530316,1.096544,9.958682,-0.014781,-0.156727,-0.051133
1980-01-06T00:06:17.377517824Z,-0.612916,0.968455,9.695320,-0.014781,-0.089882,-0.086286
1980-01-06T00:06:17.397384751Z,-0.590171,1.046266,9.738416,-0.024102,-0.026365,-0.061785
1980-01-06T00:06:17.417321210Z,-0.554258,1.061828,9.815030,0.004661,0.100268,-0.051133
1980-01-06T00:06:17.437123710Z,-0.638055,0.974440,9.714474,0.021572,0.173372,-0.080960
1980-01-06T00:06:17.476867564Z,-0.609324,0.958878,10.014048,-0.083224,-0.055926,-0.074568
1980-01-06T00:06:17.496724074Z,-0.730232,0.982820,9.793781,-0.080161,-0.073104,-0.086286
1980-01-06T00:06:17.516620220Z,-0.749385,0.956484,9.875184,-0.065780,-0.054195,-0.076699
1980-01-06T00:06:17.536484960Z,-0.749385,1.134852,9.875184,-0.021305,0.000266,-0.077764
1980-01-06T00:06:17.556344543Z,-0.893037,0.875081,9.808146,0.017843,0.046073,-0.076699
1980-01-06T00:06:17.576214178Z,-0.932542,0.889446,9.712379,-0.007457,0.055261,-0.071373
1980-01-06T00:06:17.596098397Z,-0.943315,1.045069,9.678860,-0.026099,0.015579,-0.077764
1980-01-06T00:06:17.635833449Z,-0.798466,0.985214,9.774628,-0.039681,-0.083357,-0.051133
1980-01-06T00:06:17.655685637Z,-0.833182,1.082179,9.851242,-0.014781,-0.079762,-0.052198
1980-01-06T00:06:17.675573345Z,-0.750582,1.041478,9.879673,0.025433,-0.069908,-0.049535
1980-01-06T00:06:17.695437876Z,-0.741005,0.966060,9.726444,0.034222,-0.033556,-0.050600
1980-01-06T00:06:17.715331366Z,-0.779313,0.997185,9.850943,0.034887,-0.048336,-0.038882
1980-01-06T00:06:17.735177043Z,-0.808043,1.048660,10.052056,0.040347,-0.048336,-0.020773
1980-01-06T00:06:17.755033449Z,-0.871489,1.070208,9.791088,0.093077,-0.041945,-0.039415
1980-01-06T00:06:17.794788970Z,-0.715866,1.092953,9.767146,0.088284,-0.102798,-0.034088
1980-01-06T00:06:17.814621001Z,-0.720655,1.076194,9.726744,0.099070,-0.092678,-0.042611
1980-01-06T00:06:17.834511835Z,-0.814029,0.993594,9.626187,0.101466,-0.068310,-0.046872
1980-01-06T00:06:17.854387460Z,-0.763750,1.073799,9.597457,0.103464,-0.005326,-0.045806
1980-01-06T00:06:17.874251262Z,-0.739808,1.091756,9.597457,0.079096,0.025167,-0.037284
1980-01-06T00:06:17.894106210Z,-0.642843,1.130063,9.652225,0.103464,-0.017710,-0.031958
1980-01-06T00:06:17.914009335Z,-0.572214,1.250970,9.680955,0.072704,-0.031558,-0.029827
1980-01-06T00:06:17.933858814Z,-0.484826,1.431733,9.661801,0.057524,-0.077498,-0.024501
1980-01-06T00:06:17.953727095Z,-0.622492,1.406593,9.685743,0.045939,-0.123171,-0.007457
1980-01-06T00:06:17.973566209Z,-0.699107,1.327585,9.762358,0.063117,-0.140082,0.010653
1980-01-06T00:06:17.993483449Z,-0.700304,1.217452,9.728839,0.102265,-0.087884,0.009587
1980-01-06T00:06:18.013372199Z,-0.584185,1.284489,9.762358,0.126900,-0.056592,0.028762
1980-01-06T00:06:18.033200324Z,-0.574608,1.296460,9.815030,0.147273,-0.080028,0.045806
1980-01-06T00:06:18.053086209Z,-0.605733,1.205481,9.728839,0.145675,-0.063383,0.035154
1980-01-06T00:06:18.092805220Z,-0.706290,1.235408,9.693225,0.107059,-0.031159,0.034088
1980-01-06T00:06:18.112673762Z,-0.682347,1.297657,9.784204,0.090414,-0.038616,0.047937
1980-01-06T00:06:18.132532772Z,-0.764947,1.391031,9.846454,0.098537,-0.067911,0.057524
1980-01-06T00:06:18.152383553Z,-0.684742,1.381454,9.683648,0.139550,-0.064448,0.041545
1980-01-06T00:06:18.172257980Z,-0.542287,1.429338,9.616611,0.149403,-0.086020,0.040480
1980-01-06T00:06:18.192148970Z,-0.618901,1.424550,9.489120,0.142479,-0.111054,0.056459
1980-01-06T00:06:18.212197251Z,-0.501585,1.487996,9.437644,0.144743,-0.105195,0.051665
1980-01-06T00:06:18.231868709Z,-0.472855,1.459266,9.404125,0.131826,-0.102398,0.033556
1980-01-06T00:06:18.251729959Z,-0.478840,1.483208,9.350554,0.107725,-0.122905,0.012783
1980-01-06T00:06:18.271601574Z,-0.521936,1.577779,9.693225,0.073636,-0.185755,0.029827
1980-01-06T00:06:18.291486886Z,-0.597353,1.559822,9.551667,0.076033,-0.150202,0.029827
1980-01-06T00:06:18.311364543Z,-0.579397,1.610101,9.580399,0.093211,-0.104130,0.035154
1980-01-06T00:06:18.331216418Z,-0.466869,1.698686,9.618706,0.069775,-0.090681,0.076699
1980-01-06T00:06:18.351091886Z,-0.439336,1.720234,9.503783,0.114915,-0.044075,0.069242
1980-01-06T00:06:18.390827147Z,-0.408211,1.636437,9.535208,0.094143,-0.074036,0.075634
1980-01-06T00:06:18.410703345Z,-0.344765,1.675941,9.401133,0.076566,-0.077764,0.063916
1980-01-06T00:06:18.430567928Z,-0.290895,1.680730,9.262269,0.031159,-0.068177,0.061785
1980-01-06T00:06:18.450430428Z,-0.241814,1.860295,9.621399,-0.021572,-0.052331,0.078829
1980-01-06T00:06:18.470288084Z,-0.302867,1.814805,9.765051,0.017577,-0.088017,0.106526
1980-01-06T00:06:18.490184699Z,-0.274136,1.668759,9.803358,0.081759,-0.066446,0.106526
1980-01-06T00:06:18.510024386Z,-0.313640,1.559822,9.851242,0.104396,-0.060853,0.112918
1980-01-06T00:06:18.549770324Z,-0.311246,1.588553,9.549573,0.173771,-0.067777,0.104396
1980-01-06T00:06:18.569647147Z,-0.262165,1.635240,9.597457,0.164184,-0.061785,0.088417
1980-01-06T00:06:18.589518032Z,-0.158017,1.855506,9.625888,0.202400,-0.115048,0.097472
1980-01-06T00:06:18.609419178Z,-0.185551,1.860295,9.477448,0.191481,-0.082691,0.111320
1980-01-06T00:06:18.629256834Z,-0.098162,1.795651,9.453506,0.196408,-0.013582,0.112385
1980-01-06T00:06:18.649124959Z,-0.008380,1.889025,9.680955,0.186954,0.010120,0.131027
1980-01-06T00:06:18.688874386Z,-0.092177,1.740585,9.561244,0.236888,0.003995,0.107592
1980-01-06T00:06:18.708736001Z,-0.070629,1.830367,9.666590,0.212653,-0.036618,0.110787
1980-01-06T00:06:18.728589490Z,-0.169988,1.845930,9.570822,0.213985,-0.059921,0.119310
1980-01-06T00:06:18.748465949Z,-0.153229,1.914164,9.487324,0.199071,-0.048603,0.136354
1980-01-06T00:06:18.768299490Z,-0.070629,2.068590,9.507375,0.190150,-0.004927,0.153931
1980-01-06T00:06:18.788177615Z,0.001197,2.200271,9.430760,0.195875,0.037950,0.170975
1980-01-06T00:06:18.808073605Z,0.088585,2.230199,9.339781,0.206262,0.076033,0.168844
1980-01-06T00:06:18.847773865Z,0.134075,2.300828,9.301474,0.183092,0.020107,0.174171
1980-01-06T00:06:18.867645220Z,0.158017,2.269703,9.276634,0.172306,-0.031692,0.153398
1980-01-06T00:06:18.887534438Z,0.203507,2.267309,9.224859,0.160189,-0.041146,0.118777
1980-01-06T00:06:18.907422876Z,0.216675,2.382231,9.094674,0.160588,-0.038349,0.092678
1980-01-06T00:06:18.927260688Z,0.203507,2.448071,9.271846,0.144743,-0.058190,0.091613
1980-01-06T00:06:18.947124855Z,0.101754,2.503138,9.186552,0.176567,-0.049002,0.079362
1980-01-06T00:06:19.006731886Z,-0.168791,2.637213,8.971972,0.126900,-0.092678,0.069242
1980-01-06T00:06:19.026589386Z,-0.180762,2.597709,8.952818,0.103996,-0.096806,0.095874
1980-01-06T00:06:19.046471782Z,-0.084994,2.595315,9.073725,0.076300,-0.051798,0.127299
1980-01-06T00:06:19.066300376Z,-0.016759,2.873042,9.188647,0.080427,0.012517,0.160322
1980-01-06T00:06:19.086215376Z,0.032322,2.869451,8.934861,0.122905,0.054861,0.173105
1980-01-06T00:06:19.106090844Z,0.059855,2.840720,8.886977,0.108657,0.076832,0.169910
1980-01-06T00:06:19.145805584Z,0.069432,2.839523,9.072827,0.003063,0.066978,0.148072
1980-01-06T00:06:19.165647147Z,0.037110,2.992752,9.262269,-0.012916,0.024368,0.134223
1980-01-06T00:06:19.185567563Z,0.009577,3.058593,9.319730,0.021572,-0.021172,0.128897
1980-01-06T00:06:19.205446938Z,-0.079009,2.814384,9.228749,0.065514,-0.067644,0.118244
1980-01-06T00:06:19.225313240Z,-0.134075,2.686294,9.219172,0.027297,-0.080028,0.141680
1980-01-06T00:06:19.245167928Z,-0.138864,2.803610,9.161712,-0.005193,-0.042344,0.164051
1980-01-06T00:06:19.265020011Z,-0.094571,2.794033,9.200019,-0.013316,-0.050201,0.197074
1980-01-06T00:06:19.304779855Z,0.065841,2.756923,9.393650,-0.015313,0.007989,0.208792
1980-01-06T00:06:19.324632199Z,0.134075,2.712631,9.393650,0.007057,-0.056459,0.206661
1980-01-06T00:06:19.344514178Z,0.140061,2.669535,9.326612,0.027830,-0.112385,0.196008
1980-01-06T00:06:19.364370376Z,0.117316,2.625242,9.200917,0.045540,-0.123171,0.199737
1980-01-06T00:06:19.384232355Z,0.179565,2.576161,9.152135,0.030360,-0.087085,0.206661
1980-01-06T00:06:19.404135167Z,0.257377,2.624045,9.167398,0.022104,-0.082558,0.218912
1980-01-06T00:06:19.423963709Z,0.281319,2.637213,9.186552,0.032224,-0.085221,0.223173
1980-01-06T00:06:19.443834074Z,0.308852,2.743755,9.254487,0.058323,-0.080427,0.246076
1980-01-06T00:06:19.463684334Z,0.286107,2.607286,9.163507,0.080827,-0.047271,0.258859
1980-01-06T00:06:19.483562615Z,0.417788,2.596512,9.182661,0.088284,-0.050467,0.245011
1980-01-06T00:06:19.503456886Z,0.435745,2.777274,9.230545,0.062984,-0.098537,0.256729
1980-01-06T00:06:19.523310792Z,0.420182,2.752135,9.177873,0.064448,-0.065247,0.252467
1980-01-06T00:06:19.543153969Z,0.476446,2.750938,9.149442,0.075767,-0.066712,0.249272
1980-01-06T00:06:19.563039542Z,0.507571,2.756923,9.204807,0.057791,-0.088683,0.247141
1980-01-06T00:06:19.602783813Z,0.575805,2.669535,9.283517,0.039015,-0.109323,0.262055
1980-01-06T00:06:19.622634698Z,0.566229,2.709039,9.417592,0.033023,-0.129962,0.279099
1980-01-06T00:06:19.642519698Z,0.636858,2.721010,9.384073,0.047937,-0.108790,0.283360
1980-01-06T00:06:19.662379021Z,0.733823,2.704251,9.243114,0.058723,-0.089615,0.269512
1980-01-06T00:06:19.682261678Z,0.770933,2.768894,9.293094,0.056725,-0.108657,0.279099
1980-01-06T00:06:19.702128605Z,0.782904,2.730587,9.204807,0.072971,-0.107858,0.275903
1980-01-06T00:06:19.741857042Z,0.852336,2.725799,9.087193,0.083623,-0.101866,0.275903
1980-01-06T00:06:19.761731573Z,0.878672,2.747346,9.115923,0.078963,-0.092944,0.286556
1980-01-06T00:06:19.781618761Z,0.908600,2.827552,8.981848,0.087618,-0.070307,0.284425
1980-01-06T00:06:19.801459594Z,0.957681,3.019088,8.869619,0.091480,-0.081626,0.289752
1980-01-06T00:06:19.821369803Z,1.022324,3.219004,8.745121,0.064582,-0.097605,0.315318
1980-01-06T00:06:19.841198553Z,1.059434,2.966416,8.613141,0.051665,-0.023436,0.334493
1980-01-06T00:06:19.861038136Z,1.107318,2.888604,8.678083,0.037018,0.021838,0.329166
1980-01-06T00:06:19.880918500Z,1.112107,2.930503,8.866926,-0.001332,-0.024901,0.336623
1980-01-06T00:06:19.900820948Z,1.234211,2.881422,8.852561,-0.001598,-0.005992,0.306796
1980-01-06T00:06:19.920693032Z,1.337162,2.811990,8.833407,-0.010653,-0.056459,0.284425
1980-01-06T00:06:19.940542146Z,1.381454,2.620454,8.986636,-0.056059,-0.105062,0.267381
1980-01-06T00:06:19.960423865Z,1.472434,2.735375,9.221268,-0.085487,-0.095607,0.257794
1980-01-06T00:06:19.980296105Z,1.501164,2.791639,9.269152,-0.039148,-0.069109,0.256729
1980-01-06T00:06:20.000149542Z,1.541866,2.711433,9.367614,0.001864,-0.048203,0.249272
1980-01-06T00:06:20.020024594Z,1.485602,2.691083,9.343672,0.024235,-0.056326,0.250337
1980-01-06T00:06:20.059727563Z,1.462857,2.759317,9.368511,0.030626,-0.033156,0.218912
1980-01-06T00:06:20.079657615Z,1.323994,2.770091,9.205706,0.057258,-0.039548,0.213585
1980-01-06T00:06:20.099520532Z,1.225831,2.746149,9.157822,0.079229,-0.023169,0.222107
1980-01-06T00:06:20.119374907Z,1.140837,2.808398,9.119514,0.074036,0.001731,0.246609
1980-01-06T00:06:20.159106365Z,1.165976,2.676718,9.129091,0.068310,0.020639,0.271110
1980-01-06T00:06:20.198809438Z,1.200692,2.847903,9.133880,0.033822,-0.022104,0.278566
1980-01-06T00:06:20.218706052Z,1.197101,2.859874,9.153033,0.041945,-0.041013,0.300937
1980-01-06T00:06:20.238555375Z,1.198298,2.810793,9.022848,0.056059,-0.009188,0.302535
1980-01-06T00:06:20.258442615Z,1.282095,2.783259,8.989329,0.043276,-0.003995,0.302535
1980-01-06T00:06:20.278310948Z,1.321599,2.755726,9.054871,0.005593,-0.051399,0.324905
1980-01-06T00:06:20.298173552Z,1.349133,2.816778,9.135077,-0.007191,-0.055394,0.320644
1980-01-06T00:06:20.318038344Z,1.420959,2.859874,9.168595,0.007856,-0.075900,0.331297
1980-01-06T00:06:20.357758136Z,1.442507,2.716222,8.986636,0.027164,-0.029961,0.347276
1980-01-06T00:06:20.377645896Z,1.501164,2.776077,8.924387,0.017177,-0.007856,0.350472
1980-01-06T00:06:20.397499281Z,1.547851,2.693477,8.932767,-0.010519,-0.015713,0.362722
1980-01-06T00:06:20.417413188Z,1.576582,2.725799,9.076419,-0.014381,-0.000399,0.381897
1980-01-06T00:06:20.437243813Z,1.584962,2.736573,9.105149,0.020773,0.013715,0.390419
1980-01-06T00:06:20.457119802Z,1.625663,2.735375,9.028535,0.067245,0.016112,0.378701
1980-01-06T00:06:20.496895427Z,1.710657,2.749741,8.699033,0.060054,-0.001198,0.384560
1980-01-06T00:06:20.516717563Z,1.695095,2.871845,8.833108,0.013049,0.044342,0.410126
1980-01-06T00:06:20.536595063Z,1.721431,3.014300,8.866627,0.007856,0.067911,0.436758
1980-01-06T00:06:20.556456104Z,1.744176,2.873042,8.861838,0.042611,0.078031,0.418649
1980-01-06T00:06:20.576336886Z,1.738190,2.574964,8.771158,0.058190,0.057391,0.399474
1980-01-06T00:06:20.596171729Z,1.622072,2.394202,8.883985,0.031292,0.023436,0.432497
1980-01-06T00:06:20.616060427Z,1.441309,2.341529,8.869619,0.095474,0.141680,0.498543
1980-01-06T00:06:20.655780167Z,1.854309,2.968810,8.901642,0.217447,0.472178,0.564590
1980-01-06T00:06:20.675655271Z,2.024297,3.075352,8.759486,0.167113,0.327968,0.499609
1980-01-06T00:06:20.695542094Z,2.018312,2.742558,8.863335,0.049668,0.092678,0.431432
1980-01-06T00:06:20.715415323Z,1.854309,2.583344,9.002198,-0.068177,-0.035686,0.393082
1980-01-06T00:06:20.735280011Z,1.770512,2.542642,9.208099,-0.139816,-0.022504,0.411192
1980-01-06T00:06:20.755114698Z,1.859098,2.711433,9.401133,-0.121440,0.071639,0.427171
1980-01-06T00:06:20.775008344Z,2.014721,2.582147,9.394848,-0.045007,0.072438,0.412257
1980-01-06T00:06:20.794855635Z,1.995567,2.443283,9.223961,-0.035686,0.009188,0.380299
1980-01-06T00:06:20.814759906Z,1.900996,2.394202,9.070732,-0.054595,-0.045939,0.341950
1980-01-06T00:06:20.834637094Z,1.867477,2.250550,9.093178,-0.100002,-0.083623,0.341950
1980-01-06T00:06:20.854613292Z,1.820790,2.452860,9.151836,-0.105727,-0.024901,0.376571
1980-01-06T00:06:20.874386938Z,1.942895,2.578555,8.974665,-0.042477,0.067777,0.396811
1980-01-06T00:06:20.894248500Z,2.128445,2.372654,8.941146,-0.010253,0.093077,0.370179
1980-01-06T00:06:20.914104333Z,2.006341,2.294842,9.003395,-0.051399,0.011585,0.372310
1980-01-06T00:06:20.953837979Z,1.821988,2.365471,8.733748,-0.070840,0.043010,0.381897
1980-01-06T00:06:20.973719333Z,1.841141,2.313996,8.863035,-0.108790,0.041279,0.377636
1980-01-06T00:06:20.993548292Z,1.914164,2.250550,8.968380,-0.142479,0.018908,0.379766
1980-01-06T00:06:21.013461573Z,1.953669,2.167950,9.035418,-0.150069,0.021971,0.385093
1980-01-06T00:06:21.033285271Z,1.929727,2.166753,9.030629,-0.118377,0.025699,0.391484
1980-01-06T00:06:21.053164021Z,1.932121,2.100912,8.930073,-0.089349,0.057657,0.377636
1980-01-06T00:06:21.073038135Z,1.958457,2.026692,8.967483,-0.099868,0.039681,0.396278
1980-01-06T00:06:21.112761990Z,2.091335,1.963245,9.005790,-0.120508,0.064981,0.413322
1980-01-06T00:06:21.132635010Z,2.041057,2.003947,8.977059,-0.094409,0.105727,0.416518
1980-01-06T00:06:21.152500427Z,2.060210,1.944092,9.173384,-0.092145,0.138484,0.421844
1980-01-06T00:06:21.172386885Z,2.039860,1.899799,9.202114,-0.077498,0.107858,0.416518
1980-01-06T00:06:21.192238448Z,1.991976,1.770512,9.068039,-0.066179,0.104795,0.409061
1980-01-06T00:06:21.212100948Z,2.023100,1.850718,9.096769,-0.086686,0.115714,0.414388
1980-01-06T00:06:21.251810531Z,1.978808,1.659182,9.188946,-0.115448,0.169643,0.412257
1980-01-06T00:06:21.271740427Z,2.029086,1.558625,9.222465,-0.125035,0.139283,0.388821
1980-01-06T00:06:21.291598500Z,1.956063,1.543063,9.313444,-0.152333,0.088017,0.364320
1980-01-06T00:06:21.311448187Z,1.920150,1.385046,9.308656,-0.152333,0.043143,0.373908
1980-01-06T00:06:21.331319594Z,1.922544,1.468843,9.260772,-0.139816,0.142612,0.389886
1980-01-06T00:06:21.351208135Z,2.030283,1.496376,9.222465,-0.088284,0.206661,0.395213
1980-01-06T00:06:21.371074281Z,2.114080,1.289278,9.166202,-0.071772,0.217980,0.368049
1980-01-06T00:06:21.410802198Z,1.855506,1.497573,9.209297,-0.146207,0.134623,0.366983
1980-01-06T00:06:21.430665062Z,1.810017,1.283292,9.068039,-0.107725,0.127832,0.353667
1980-01-06T00:06:21.450504281Z,1.762132,1.053449,9.214384,-0.143012,0.128631,0.380299
1980-01-06T00:06:21.470390635Z,1.861492,1.155202,9.288305,-0.178298,0.187620,0.387756
1980-01-06T00:06:21.490293656Z,1.930924,1.006762,9.393650,-0.167779,0.201867,0.402670
1980-01-06T00:06:21.510152354Z,1.969231,1.274912,9.379285,-0.113317,0.236755,0.384560
1980-01-06T00:06:21.530014958Z,1.886631,1.131260,9.240421,-0.057391,0.195076,0.366451
1980-01-06T00:06:21.569769698Z,1.798046,1.250970,9.176077,-0.108657,0.221575,0.348341
1980-01-06T00:06:21.589635166Z,1.778892,1.168370,9.061155,-0.128631,0.194810,0.319579
1980-01-06T00:06:21.609498344Z,1.789666,1.092953,9.137770,-0.172706,0.119975,0.290817
1980-01-06T00:06:21.629329229Z,1.711854,1.004368,9.130288,-0.220776,0.070973,0.265251
1980-01-06T00:06:21.649207718Z,1.666364,0.956484,9.297882,-0.271110,0.061386,0.264185
1980-01-06T00:06:21.669103135Z,1.650802,0.852336,9.446322,-0.275903,0.103064,0.285491
1980-01-06T00:06:21.708805427Z,1.704672,0.760159,9.647436,-0.202134,0.196674,0.297209
1980-01-06T00:06:21.728674906Z,1.590947,0.644040,9.613917,-0.151001,0.178165,0.302535
1980-01-06T00:06:21.748536573Z,1.607706,0.610521,9.645341,-0.162586,0.212254,0.274838
1980-01-06T00:06:21.768430271Z,1.589750,0.603339,9.683648,-0.180429,0.162852,0.267381
1980-01-06T00:06:21.788286104Z,1.473631,0.471658,9.717167,-0.194011,0.184157,0.257794
1980-01-06T00:06:21.808147146Z,1.460463,0.587777,9.683648,-0.145941,0.231029,0.249272
1980-01-06T00:06:21.828027406Z,1.411382,0.735020,9.614815,-0.099469,0.243146,0.231695
1980-01-06T00:06:21.867773187Z,1.180341,0.420182,9.434651,-0.110921,0.209724,0.216248
1980-01-06T00:06:21.887642927Z,1.133654,0.331597,9.361030,-0.143012,0.175502,0.205063
1980-01-06T00:06:21.907491208Z,1.187524,0.329203,9.504682,-0.197740,0.186554,0.188019
1980-01-06T00:06:21.927355687Z,1.236605,0.409408,9.743204,-0.236355,0.164184,0.199204
1980-01-06T00:06:21.947260948Z,1.267730,0.367510,9.779416,-0.212121,0.179231,0.186421
1980-01-06T00:06:21.967109906Z,1.176750,0.283713,9.733627,-0.143677,0.187486,0.165116
1980-01-06T00:06:22.006835166Z,0.982820,-0.057461,9.788993,-0.138484,0.218246,0.169377
1980-01-06T00:06:22.026717145Z,0.907402,0.193930,9.843760,-0.048603,0.246076,0.197074
1980-01-06T00:06:22.046570583Z,0.845153,0.064643,10.260351,0.068044,0.359660,0.208792
1980-01-06T00:06:22.066455635Z,0.930147,-0.175974,9.862914,0.057125,0.315984,0.227966
1980-01-06T00:06:22.086329072Z,0.875081,0.065841,9.707590,0.086686,0.288287,0.176834
1980-01-06T00:06:22.106198656Z,0.809240,0.253785,9.573515,0.085887,0.246209,0.153398
1980-01-06T00:06:22.126051208Z,0.659603,0.196325,9.415498,0.062717,0.203998,0.137419
1980-01-06T00:06:22.165780270Z,0.691924,-0.034716,9.396344,-0.005992,0.236622,0.133158
1980-01-06T00:06:22.185681781Z,0.762553,0.178368,9.468170,-0.008522,0.215583,0.118244
1980-01-06T00:06:22.205557458Z,0.665588,0.046687,9.300576,0.012916,0.190150,0.094808
1980-01-06T00:06:22.225395375Z,0.531513,0.104148,9.123106,0.050866,0.184956,0.088950
1980-01-06T00:06:22.245263864Z,0.456095,0.162806,9.027337,0.024501,0.212254,0.065514
1980-01-06T00:06:22.265161312Z,0.408211,0.052672,9.170990,-0.038349,0.150202,0.090015
1980-01-06T00:06:22.324758187Z,0.298078,0.011971,9.127894,-0.017311,0.204531,0.055926
1980-01-06T00:06:22.344629020Z,0.320823,0.193930,9.175778,-0.040081,0.216914,0.030360
1980-01-06T00:06:22.364491416Z,0.349553,0.254982,9.238028,-0.084822,0.172706,0.038882
1980-01-06T00:06:22.384391052Z,0.153229,0.017957,9.156923,-0.062851,0.170708,0.038349
1980-01-06T00:06:22.404216885Z,0.090980,0.043096,9.080309,-0.077498,0.248340,0.009587
1980-01-06T00:06:22.424058343Z,0.169988,0.008380,9.310153,-0.163118,0.255264,0.020240
1980-01-06T00:06:22.463819906Z,-0.041899,0.197522,9.439440,-0.139150,0.191747,-0.020240
1980-01-06T00:06:22.483687354Z,-0.020351,-0.026336,9.282320,-0.141281,0.220110,-0.054861
1980-01-06T00:06:22.503535479Z,0.015562,0.038307,9.421184,-0.171641,0.188552,-0.058057
1980-01-06T00:06:22.523409593Z,-0.166397,-0.021548,9.545682,-0.183358,0.212387,-0.041013
1980-01-06T00:06:22.543277770Z,-0.262165,-0.216675,9.645341,-0.173771,0.303600,-0.062851
1980-01-06T00:06:22.563164281Z,-0.247800,-0.342371,9.607034,-0.153664,0.295744,-0.059655
1980-01-06T00:06:22.583010374Z,-0.140061,0.197522,9.674071,-0.154463,0.272042,-0.100135
1980-01-06T00:06:22.622743812Z,-0.310049,-0.179565,9.804255,-0.180562,0.213053,-0.116646
1980-01-06T00:06:22.642609333Z,-0.395043,-0.351948,9.909601,-0.181494,0.227567,-0.133691
1980-01-06T00:06:22.662503187Z,-0.506374,-0.055067,10.269629,-0.231029,0.205729,-0.119310
1980-01-06T00:06:22.682363239Z,-0.717063,-0.059855,10.398916,-0.226102,0.235823,-0.110787
1980-01-06T00:06:22.702248916Z,-0.717063,-0.160412,10.145130,-0.157393,0.253932,-0.139550
1980-01-06T00:06:22.722095999Z,-0.573411,-0.397437,10.237308,-0.165915,0.200536,-0.125168
1980-01-06T00:06:22.761812770Z,-0.621295,-0.350751,10.199000,-0.202001,0.236888,-0.146474
1980-01-06T00:06:22.781712562Z,-0.866701,-0.124498,10.261250,-0.166581,0.283760,-0.109190
1980-01-06T00:06:22.801572510Z,-0.897826,-0.296881,10.122386,-0.071106,0.369913,-0.107059
1980-01-06T00:06:22.821474385Z,-0.831985,-0.659603,10.207679,-0.001864,0.414920,-0.138484
1980-01-06T00:06:22.841308187Z,-0.920571,-0.594959,10.279505,0.024501,0.347409,-0.151267
1980-01-06T00:06:22.861200374Z,-0.957681,-0.499191,10.131064,0.071240,0.285757,-0.178964
1980-01-06T00:06:22.881034228Z,-1.143231,-0.401029,9.963470,0.063117,0.311190,-0.223705
1980-01-06T00:06:22.920802041Z,-1.740585,-0.161609,10.447099,0.276303,0.291216,-0.176834
1980-01-06T00:06:22.940627249Z,-1.786075,-0.375890,9.970952,0.289752,0.296410,-0.152333
1980-01-06T00:06:22.960509958Z,-1.897405,-0.350751,9.810242,0.227167,0.272707,-0.167246
1980-01-06T00:06:22.980375218Z,-1.883040,-0.165200,10.121488,0.201202,0.170309,-0.127832
1980-01-06T00:06:23.000256208Z,-1.831564,0.023942,10.212467,0.238353,0.185622,-0.110787
1980-01-06T00:06:23.020094124Z,-1.808819,0.154426,9.985317,0.290151,0.224105,-0.092678
1980-01-06T00:06:23.079725791Z,-1.801637,0.011971,9.837775,0.228499,0.091613,-0.093211
1980-01-06T00:06:23.099604958Z,-1.941698,0.260968,9.900024,0.236888,0.037551,-0.068710
1980-01-06T00:06:23.119468030Z,-1.932121,0.262165,9.742905,0.273506,0.047671,-0.041545
1980-01-06T00:06:23.139320270Z,-1.813608,0.150835,9.584888,0.255663,0.059788,-0.027697
1980-01-06T00:06:23.159193655Z,-1.642422,0.237026,9.685444,0.225570,0.043809,-0.009587
1980-01-06T00:06:23.179051572Z,-1.552640,0.192733,9.570522,0.239152,0.099336,-0.054328
1980-01-06T00:06:23.218791312Z,-1.543063,0.307655,9.551369,0.198672,0.078563,-0.085221
1980-01-06T00:06:23.238656103Z,-1.642422,0.335188,9.613917,0.123571,0.042744,-0.087352
1980-01-06T00:06:23.258545843Z,-1.739388,0.374693,9.607034,0.098803,0.027164,-0.054328
1980-01-06T00:06:23.278410843Z,-1.740585,0.177171,9.425075,0.133691,0.138484,-0.069242
1980-01-06T00:06:23.298284697Z,-1.660379,0.415394,9.372402,0.129296,0.229298,-0.063916
1980-01-06T00:06:23.318109905Z,-1.685518,0.579397,9.319730,0.137818,0.220510,-0.052198
1980-01-06T00:06:23.338013499Z,-1.811214,0.616507,9.434651,0.189617,0.168578,-0.056459
1980-01-06T00:06:23.377740010Z,-1.874660,0.391452,9.190442,0.111054,0.122638,-0.095874
1980-01-06T00:06:23.397621780Z,-1.854309,0.343568,9.204807,0.094808,0.065913,-0.094808
1980-01-06T00:06:23.417507562Z,-1.923741,0.371101,9.008483,0.113717,0.108391,-0.138484
1980-01-06T00:06:23.437361780Z,-1.626860,0.403423,9.139865,-0.038616,0.110122,-0.154463
1980-01-06T00:06:23.457198812Z,-1.719037,0.642843,9.056367,-0.070973,0.004794,-0.119310
1980-01-06T00:06:23.477121103Z,-1.850718,0.403423,9.051579,-0.023569,0.028895,-0.155528
1980-01-06T00:06:23.516830322Z,-1.917756,0.650026,9.334095,-0.060587,0.099602,-0.165116
1980-01-06T00:06:23.536701624Z,-1.997961,0.687136,9.388862,0.001065,0.115847,-0.219444
1980-01-06T00:06:23.556568291Z,-2.048239,0.442927,9.436746,-0.005193,0.003063,-0.202400
1980-01-06T00:06:23.576437457Z,-1.920150,0.494403,9.479841,-0.079229,-0.061253,-0.213053
1980-01-06T00:06:23.596308864Z,-2.025495,0.730232,9.618706,-0.078563,-0.084289,-0.178964
1980-01-06T00:06:23.616184072Z,-2.167950,0.475249,9.326612,0.025566,0.041146,-0.221575
1980-01-06T00:06:23.636045582Z,-2.214637,0.421380,9.302670,0.004527,0.132892,-0.252467
1980-01-06T00:06:23.675795739Z,-2.132037,0.779313,10.044873,-0.035287,0.132892,-0.205596
1980-01-06T00:06:23.695647457Z,-2.064999,0.748188,10.164583,0.089748,0.068310,-0.208792
1980-01-06T00:06:23.715501311Z,-1.990779,0.389058,9.899126,0.153531,-0.034621,-0.247141
1980-01-06T00:06:23.735357614Z,-1.980005,0.559046,9.966164,0.147273,-0.120508,-0.272707
1980-01-06T00:06:23.755305270Z,-1.999158,0.770933,9.803358,0.032357,-0.136087,-0.231162
1980-01-06T00:06:23.775093551Z,-2.214637,0.845153,10.087969,0.090414,-0.039814,-0.214118
1980-01-06T00:06:23.814826311Z,-1.915361,0.505177,9.798570,0.166980,-0.001332,-0.263120
1980-01-06T00:06:23.834696311Z,-1.971625,0.483629,9.812935,0.104795,-0.118111,-0.249272
1980-01-06T00:06:23.854581103Z,-2.008735,0.448913,9.640553,0.064182,-0.089748,-0.292947
1980-01-06T00:06:23.874462613Z,-2.030283,0.566229,9.652225,0.073903,-0.097605,-0.299339
1980-01-06T00:06:23.894320478Z,-1.971625,0.536301,9.451111,0.105727,-0.081359,-0.314253
1980-01-06T00:06:23.914174228Z,-1.884237,0.590171,9.374496,0.105861,-0.121440,-0.282295
1980-01-06T00:06:23.934047249Z,-1.831564,0.706290,9.508572,0.088550,-0.141680,-0.306796
1980-01-06T00:06:23.973777301Z,-1.945289,0.435745,9.460688,-0.041146,-0.180429,-0.311057
1980-01-06T00:06:23.993653968Z,-1.984793,0.866701,10.504560,0.072704,-0.147273,-0.296143
1980-01-06T00:06:24.013558343Z,-1.865083,0.800860,10.432435,0.151267,-0.083224,-0.322775
1980-01-06T00:06:24.033389957Z,-1.838747,0.802058,10.178649,0.193478,-0.126766,-0.324905
1980-01-06T00:06:24.053284384Z,-1.954866,0.723049,10.015843,0.211188,-0.135288,-0.306796
1980-01-06T00:06:24.073143811Z,-1.631648,0.588974,9.580099,0.149137,-0.097205,-0.361124
1980-01-06T00:06:24.093000270Z,-1.934515,0.709881,9.426870,0.051932,-0.157393,-0.320644
1980-01-06T00:06:24.132716259Z,-1.985990,0.556652,9.309854,-0.024767,0.056193,-0.281762
1980-01-06T00:06:24.152584957Z,-1.879448,0.588974,9.568427,-0.136087,-0.049135,-0.255131
1980-01-06T00:06:24.172486676Z,-1.804031,0.579397,9.884461,-0.104662,-0.125168,-0.227434
1980-01-06T00:06:24.192339332Z,-1.823185,0.512359,10.032902,-0.027297,-0.092278,-0.226369
1980-01-06T00:06:24.212210947Z,-1.661576,0.416591,9.798270,-0.010919,-0.099735,-0.232760
1980-01-06T00:06:24.232091936Z,-1.699883,0.645237,9.666290,-0.013049,-0.054728,-0.258859
1980-01-06T00:06:24.271851155Z,-1.606509,0.635661,9.939229,-0.007590,-0.089349,-0.278034
1980-01-06T00:06:24.291696624Z,-1.704672,0.602142,9.671079,-0.032890,-0.158724,-0.255663
1980-01-06T00:06:24.311606624Z,-1.696292,0.503979,9.613917,-0.084156,-0.147805,-0.258859
1980-01-06T00:06:24.331406676Z,-1.703475,0.535104,9.592669,-0.036485,-0.185888,-0.242880
1980-01-06T00:06:24.351291051Z,-1.750161,0.549469,9.386767,-0.028762,-0.146341,-0.243945
1980-01-06T00:06:24.371180217Z,-1.836353,0.594959,9.305365,-0.019974,-0.051266,-0.272707
1980-01-06T00:06:24.391002613Z,-1.804031,0.502782,9.228749,-0.094808,-0.057258,-0.252467
1980-01-06T00:06:24.410868967Z,-1.703475,0.530316,9.664495,-0.144610,-0.091480,-0.220510
1980-01-06T00:06:24.430776676Z,-1.754950,0.464475,9.985317,-0.077232,-0.041945,-0.249272
1980-01-06T00:06:24.450629905Z,-1.667562,0.344765,9.982325,-0.063516,-0.083357,-0.257794
1980-01-06T00:06:24.470529749Z,-1.612495,0.338780,9.967959,-0.056992,-0.201202,-0.238619
1980-01-06T00:06:24.490348342Z,-1.580173,0.195127,9.618406,-0.032624,-0.162320,-0.251402
1980-01-06T00:06:24.510225165Z,-1.436521,0.241814,9.450812,-0.019707,-0.067911,-0.271642
1980-01-06T00:06:24.530090999Z,-1.517924,0.356736,9.695320,0.000932,-0.006658,-0.269512
1980-01-06T00:06:24.569818030Z,-1.288081,0.077812,9.393650,-0.102265,-0.058190,-0.292947
1980-01-06T00:06:24.589685790Z,-1.276109,0.259771,9.709685,-0.143012,-0.184157,-0.267381
1980-01-06T00:06:24.609592665Z,-1.206678,0.219069,9.724051,-0.108657,-0.162320,-0.287621
1980-01-06T00:06:24.629434592Z,-1.279701,0.003591,9.431957,-0.117046,-0.088950,-0.315318
1980-01-06T00:06:24.649317405Z,-1.215057,0.065841,9.595961,-0.085221,-0.069775,-0.304665
1980-01-06T00:06:24.669153967Z,-1.145625,-0.107739,9.439440,0.026898,-0.115581,-0.331297
1980-01-06T00:06:24.689042353Z,-1.035492,0.715866,12.494441,0.258593,0.052731,-0.540089
1980-01-06T00:06:24.728783707Z,-1.238999,-0.328006,10.114604,-0.098404,-0.183225,-0.323840
1980-01-06T00:06:24.748678134Z,-1.132457,-0.026336,10.047566,0.102532,-0.235423,-0.469781
1980-01-06T00:06:24.768516571Z,-1.408988,0.008380,9.449017,0.028363,-0.309592,-0.406931
1980-01-06T00:06:24.788388446Z,-1.283292,0.254982,9.358037,0.074568,-0.223040,-0.437823
1980-01-06T00:06:24.808258863Z,-1.385046,-0.210690,8.400356,-0.023169,-0.218113,-0.344080
1980-01-06T00:06:24.828126207Z,-1.334767,0.088585,9.132981,-0.038483,-0.165249,-0.329166
1980-01-06T00:06:24.848002040Z,-1.547851,0.028730,9.035418,-0.130362,-0.076433,-0.337156
1980-01-06T00:06:24.867878238Z,-1.523909,0.302867,9.289204,-0.140881,-0.176434,-0.304133
1980-01-06T00:06:24.887734540Z,-1.522712,0.240617,9.667487,-0.124103,-0.220243,-0.260457
1980-01-06T00:06:24.907600321Z,-1.405396,0.161609,9.815030,-0.076166,-0.281629,-0.237554
1980-01-06T00:06:24.927480894Z,-1.344344,0.041899,9.700109,-0.068710,-0.295211,-0.218379
1980-01-06T00:06:24.947349071Z,-1.181539,-0.110133,9.470264,-0.104795,-0.236222,-0.235423
1980-01-06T00:06:24.967219592Z,-0.828394,0.123301,10.061932,-0.170309,-0.236622,-0.242880
1980-01-06T00:06:24.987078498Z,-1.164779,0.581791,12.202349,-0.354333,-0.578438,-0.099070
1980-01-06T00:06:25.026810998Z,-1.193510,0.032322,9.801862,0.062052,-0.238486,-0.274838
1980-01-06T00:06:25.046667717Z,-0.702698,-0.135272,9.429863,-0.005992,-0.321710,-0.218379
1980-01-06T00:06:25.066539123Z,-0.742203,0.090980,9.682152,-0.020240,-0.337689,-0.196008
1980-01-06T00:06:25.086395269Z,-0.723049,0.083797,9.409213,-0.101600,-0.298274,-0.183225
1980-01-06T00:06:25.106256676Z,-0.646434,-0.025139,9.840169,-0.129829,-0.421978,-0.166181
1980-01-06T00:06:25.126126207Z,-0.876278,-0.050278,9.619903,-0.160722,-0.483896,-0.150202
1980-01-06T00:06:25.146024905Z,-1.082179,0.251391,9.821015,-0.157925,-0.413589,-0.083091
1980-01-06T00:06:25.185734019Z,-0.907402,0.317232,9.683648,-0.058057,-0.330764,-0.010653
1980-01-06T00:06:25.205633030Z,-0.323217,0.053870,9.739613,-0.023968,-0.347010,-0.037284
1980-01-06T00:06:25.225481728Z,-1.310825,0.736217,11.727997,0.038483,-0.075234,-0.125168
1980-01-06T00:06:25.245348238Z,-0.385466,0.322020,9.913192,0.023835,-0.010120,-0.053796
1980-01-06T00:06:25.265226519Z,-0.143652,0.131681,9.625888,0.031825,-0.016512,-0.010120
1980-01-06T00:06:25.285080790Z,0.096965,-0.022745,9.836577,-0.019175,-0.013183,0.003728
1980-01-06T00:06:25.324815425Z,0.019154,-0.169988,9.742905,0.005726,-0.020639,-0.012783
1980-01-06T00:06:25.344705946Z,0.074220,-0.192733,9.718963,0.002131,-0.013982,-0.028762
1980-01-06T00:06:25.364560790Z,-0.043096,-0.081403,9.556157,-0.027164,-0.000133,-0.047937
1980-01-06T00:06:25.384448342Z,-0.184354,0.063446,9.661502,-0.016245,-0.004128,-0.062851
1980-01-06T00:06:25.404290790Z,-0.290895,0.178368,9.728839,-0.010253,-0.002663,-0.044741
1980-01-06T00:06:25.424160530Z,-0.568623,0.027533,9.743204,-0.019308,-0.000799,-0.014914
1980-01-06T00:06:25.444056155Z,0.093374,-0.223858,9.676167,-0.026898,-0.013049,-0.006392
1980-01-06T00:06:25.503631623Z,-0.039504,-0.229843,9.714474,-0.011452,-0.004927,-0.011718
1980-01-06T00:06:25.523488915Z,0.028730,-0.265756,9.683648,0.003063,0.002264,-0.008522
1980-01-06T00:06:25.543358655Z,-0.149638,-0.239420,9.762358,-0.006924,-0.013049,-0.011718
1980-01-06T00:06:25.563268550Z,-0.051475,-0.215478,9.728839,0.009987,-0.014248,-0.014914
1980-01-06T00:06:25.583121102Z,-0.033519,-0.250194,9.680955,0.005060,-0.008788,-0.017044
1980-01-06T00:06:25.642741936Z,-0.116119,-0.246603,9.712379,0.008788,-0.005859,-0.008522
1980-01-06T00:06:25.662730269Z,-0.113725,-0.205901,9.715671,0.000799,-0.000799,-0.013848
1980-01-06T00:06:25.682482977Z,-0.074220,-0.537498,9.615114,-0.001198,-0.002397,-0.023436
1980-01-06T00:06:25.702293863Z,-0.148441,-0.333991,9.697714,-0.011452,-0.007590,-0.013316
1980-01-06T00:06:25.722166623Z,0.016759,-0.240617,9.678560,-0.015846,-0.009055,-0.014381
1980-01-06T00:06:25.742059904Z,-0.065841,-0.169988,9.745598,-0.005593,-0.007457,-0.015446
1980-01-06T00:06:25.781780894Z,-0.035913,-0.160412,9.721656,-0.000799,-0.008389,-0.015446
1980-01-06T00:06:25.801641675Z,-0.040701,-0.186748,9.728839,-0.001598,-0.007856,-0.013848
1980-01-06T00:06:25.821554175Z,-0.027533,-0.180762,9.728839,-0.000533,-0.007856,-0.013848
1980-01-06T00:06:25.841397300Z,-0.056264,-0.189142,9.709685,-0.001465,-0.006658,-0.014914
1980-01-06T00:06:25.861265998Z,-0.046687,-0.198719,9.712379,-0.001731,-0.007723,-0.013848
1980-01-06T00:06:25.881130113Z,-0.050278,-0.203507,9.717167,-0.001198,-0.007324,-0.014914
1980-01-06T00:06:25.940744800Z,-0.043096,-0.183156,9.717167,-0.003462,-0.007457,-0.014914
1980-01-06T00:06:25.960594748Z,-0.062249,-0.189142,9.702802,-0.001997,-0.008522,-0.014914
1980-01-06T00:06:25.980490217Z,-0.050278,-0.197522,9.726744,-0.002131,-0.008522,-0.014914
1980-01-06T00:06:26.000337873Z,-0.041899,-0.214281,9.724051,-0.003063,-0.008522,-0.014914
1980-01-06T00:06:26.020208186Z,-0.041899,-0.197522,9.712379,-0.001864,-0.008123,-0.013848
1980-01-06T00:06:26.040087561Z,-0.019154,-0.202310,9.709685,-0.002131,-0.008522,-0.014914
1980-01-06T00:06:26.079823029Z,-0.052672,-0.191536,9.721955,-0.002530,-0.007191,-0.014914
1980-01-06T00:06:26.099683758Z,-0.049081,-0.204704,9.724051,-0.003063,-0.007723,-0.013848
1980-01-06T00:06:26.119538498Z,-0.037110,-0.199916,9.707590,-0.001465,-0.006658,-0.013848
1980-01-06T00:06:26.139434800Z,-0.038307,-0.204704,9.717167,-0.001065,-0.006658,-0.013848
1980-01-06T00:06:26.159304279Z,-0.050278,-0.197522,9.726744,-0.001332,-0.007856,-0.013848
1980-01-06T00:06:26.179151623Z,-0.071826,-0.237026,9.583092,-0.000000,-0.006791,-0.013848
1980-01-06T00:06:26.199030738Z,-0.047884,-0.201113,9.709685,-0.000133,-0.009321,-0.014914
1980-01-06T00:06:26.218915633Z,-0.021548,-0.190339,9.695320,-0.000799,-0.007856,-0.013848
1980-01-06T00:06:26.238779175Z,-0.034716,-0.189142,9.757569,-0.001598,-0.008123,-0.013848
1980-01-06T00:06:26.258653810Z,-0.049081,-0.195127,9.733627,-0.001065,-0.007457,-0.014914
