timestamp,accel_x,accel_y,accel_z,gyro_x,gyro_y,gyro_z
1980-01-06T00:26:47.972443813Z,0.016759,-0.191536,9.576807,-0.002663,-0.009055,-0.014381
1980-01-06T00:26:47.992255376Z,-0.035913,-0.204704,9.610326,0.004261,-0.006392,-0.015446
1980-01-06T00:26:48.012307563Z,-0.033519,-0.263362,9.667787,0.003595,-0.008123,-0.014381
1980-01-06T00:26:48.071755011Z,-0.028730,-0.240617,9.701305,-0.001332,-0.006924,-0.014381
1980-01-06T00:26:48.091606261Z,-0.049081,-0.183156,9.730036,-0.005193,-0.009188,-0.014381
1980-01-06T00:26:48.111456678Z,0.034716,-0.190339,9.725247,-0.004927,-0.007590,-0.014381
1980-01-06T00:26:48.131336261Z,-0.008380,-0.190339,9.734824,-0.003063,-0.008123,-0.014381
1980-01-06T00:26:48.151172667Z,-0.023942,-0.202310,9.696517,-0.001065,-0.008389,-0.014381
1980-01-06T00:26:48.171265532Z,-0.031125,-0.199916,9.691729,-0.001864,-0.008655,-0.014381
1980-01-06T00:26:48.230683969Z,-0.032322,-0.228646,9.672575,-0.001731,-0.009454,-0.015446
1980-01-06T00:26:48.250533761Z,0.003591,-0.225055,9.701305,-0.001065,-0.007723,-0.014381
1980-01-06T00:26:48.270404230Z,-0.017957,-0.221464,9.701305,-0.002397,-0.008123,-0.014381
1980-01-06T00:26:48.290297876Z,-0.020351,-0.185551,9.710882,-0.002530,-0.008522,-0.015446
1980-01-06T00:26:48.310152251Z,-0.013168,-0.202310,9.720459,-0.002530,-0.009055,-0.014381
1980-01-06T00:26:48.330084386Z,-0.014365,-0.222661,9.706094,-0.003063,-0.008788,-0.014381
1980-01-06T00:26:48.369758136Z,-0.026336,-0.201113,9.715671,-0.002929,-0.008123,-0.014381
1980-01-06T00:26:48.389657146Z,-0.015562,-0.197522,9.715671,-0.003063,-0.009587,-0.014381
1980-01-06T00:26:48.409690584Z,0.004788,-0.199916,9.710882,-0.001731,-0.008256,-0.014381
1980-01-06T00:26:48.429377355Z,-0.017957,-0.195127,9.710882,-0.001198,-0.007856,-0.014381
1980-01-06T00:26:48.449470063Z,-0.009577,-0.202310,9.706094,-0.001332,-0.008256,-0.014381
1980-01-06T00:26:48.469108553Z,-0.016759,-0.199916,9.725247,-0.002929,-0.008922,-0.014381
1980-01-06T00:26:48.528754803Z,0.113725,0.135272,9.787497,-0.065647,0.001997,-0.011185
1980-01-06T00:26:48.548581938Z,0.064643,0.104148,9.835381,0.035154,-0.013982,0.006924
1980-01-06T00:26:48.568454959Z,-0.067038,-0.198719,9.787497,0.045540,-0.015180,-0.013316
1980-01-06T00:26:48.588340063Z,-0.063446,-0.271742,9.662998,-0.050600,-0.013582,-0.005859
1980-01-06T00:26:48.608202459Z,-0.308852,0.108936,9.720459,-0.009987,-0.000666,0.038882
1980-01-06T00:26:48.628093865Z,-0.438139,-0.067038,9.816227,-0.070174,-0.005326,0.118777
1980-01-06T00:26:48.687776990Z,-0.571017,-0.322020,9.811439,0.044608,-0.025433,-0.022903
1980-01-06T00:26:48.707571573Z,-0.551863,-0.475249,9.867104,0.007457,-0.015047,-0.210922
1980-01-06T00:26:48.727492459Z,1.323994,-0.620098,9.326015,0.042078,0.011318,0.018109
1980-01-06T00:26:48.747298188Z,0.574608,-0.556652,9.790489,0.016512,-0.001864,0.259924
1980-01-06T00:26:48.767203865Z,-0.226252,-0.444124,9.929353,-0.144476,0.040613,-0.217314
1980-01-06T00:26:48.787060011Z,-0.158017,0.408211,11.116877,-0.593751,0.033289,-0.046872
1980-01-06T00:26:48.826783709Z,-0.482432,0.004788,10.614095,0.135954,0.836898,0.131027
1980-01-06T00:26:48.846662407Z,-0.144849,-0.378284,11.686697,0.598678,1.033439,0.060720
1980-01-06T00:26:48.866536417Z,0.016759,-0.620098,11.758523,0.592819,0.817723,-0.043676
1980-01-06T00:26:48.886396990Z,0.108936,-0.544681,11.480796,0.365918,0.345811,0.011718
1980-01-06T00:26:48.906469542Z,-0.335188,-0.215478,10.767323,0.237687,0.022504,0.109722
1980-01-06T00:26:48.926130323Z,-0.579397,-0.068235,10.642825,0.280963,0.044208,0.136354
1980-01-06T00:26:48.985749438Z,-0.752976,0.057461,9.632472,0.252201,0.114915,0.227966
1980-01-06T00:26:49.005606000Z,-0.820014,-0.111330,9.139266,0.203598,0.063516,0.222640
1980-01-06T00:26:49.025515167Z,-0.987608,0.007183,8.746617,0.104928,0.067911,0.226901
1980-01-06T00:26:49.045360688Z,-1.022324,0.069432,8.574235,0.063250,0.048603,0.229032
1980-01-06T00:26:49.065234854Z,-1.090559,0.039504,8.425795,0.043942,0.057657,0.227966
1980-01-06T00:26:49.085155375Z,-0.851139,0.013168,8.531139,0.012916,0.046073,0.203465
1980-01-06T00:26:49.144701052Z,-0.657208,-0.228646,8.847174,-0.052597,-0.062717,0.173638
1980-01-06T00:26:49.164565271Z,-0.453701,-0.079009,8.859444,-0.031692,0.074435,0.123571
1980-01-06T00:26:49.184478656Z,-0.411803,-0.053870,9.050981,0.016645,0.185223,0.101200
1980-01-06T00:26:49.204327406Z,-0.312443,0.026336,9.060557,0.015313,0.233825,0.057524
1980-01-06T00:26:49.224369959Z,-0.304064,0.181959,9.247305,0.024235,0.188818,0.023436
1980-01-06T00:26:49.244042302Z,-0.444124,0.096965,9.386168,0.041013,0.117712,0.006392
1980-01-06T00:26:49.283800896Z,-0.760159,0.324414,9.400534,0.058589,0.122239,-0.059655
1980-01-06T00:26:49.303702302Z,-0.836774,0.153229,9.347861,0.107192,0.107325,-0.123571
1980-01-06T00:26:49.323586573Z,-0.984017,0.032322,9.367015,0.049668,-0.000133,-0.115048
1980-01-06T00:26:49.343374438Z,-1.051055,0.046687,9.228151,-0.012517,0.011452,-0.125701
1980-01-06T00:26:49.363288448Z,-1.080982,0.089783,9.266459,-0.033423,0.082957,-0.160855
1980-01-06T00:26:49.383169698Z,-0.993594,0.128090,9.237728,-0.041678,0.146341,-0.182160
1980-01-06T00:26:49.403028031Z,-0.927753,0.052672,9.276035,-0.040480,0.098670,-0.171507
1980-01-06T00:26:49.442946417Z,-0.791284,-0.069432,9.386168,-0.069375,0.041279,-0.247141
1980-01-06T00:26:49.462638240Z,-0.763750,-0.033519,9.419687,-0.109855,0.022371,-0.255663
1980-01-06T00:26:49.482518656Z,-0.721852,0.014365,9.491513,-0.125435,0.014914,-0.266316
1980-01-06T00:26:49.502363292Z,-0.644040,-0.009577,9.639954,-0.114383,0.070441,-0.323840
1980-01-06T00:26:49.522274594Z,-0.600945,-0.010774,9.740510,-0.108790,0.058989,-0.356863
1980-01-06T00:26:49.542107615Z,-0.556652,-0.095768,9.788394,-0.092811,0.017177,-0.406931
1980-01-06T00:26:49.601732354Z,-1.015141,-0.186748,10.166678,-0.066313,-0.048603,-0.493217
1980-01-06T00:26:49.621603552Z,-0.956484,-0.144849,10.051757,-0.093211,-0.013715,-0.492152
1980-01-06T00:26:49.641711469Z,-0.918176,0.003591,10.248081,-0.086686,-0.017976,-0.482564
1980-01-06T00:26:49.661532198Z,-0.798466,-0.029928,10.329484,-0.074302,0.006525,-0.514522
1980-01-06T00:26:49.681436052Z,-0.664391,-0.049081,10.415675,-0.031558,0.054328,-0.570981
1980-01-06T00:26:49.701334229Z,-0.563834,-0.180762,10.530597,-0.028496,0.005859,-0.590156
1980-01-06T00:26:49.760686260Z,-0.732626,-0.663194,10.348638,-0.286290,-0.239551,-0.907605
1980-01-06T00:26:49.780553083Z,-0.951695,-0.512359,10.300754,-0.437690,-0.391618,-0.873516
1980-01-06T00:26:49.800419750Z,-1.107318,-0.082600,10.894516,-0.416651,-0.479768,-0.779773
1980-01-06T00:26:49.820274750Z,-1.261744,-0.263362,11.177032,-0.193079,-0.301869,-0.791491
1980-01-06T00:26:49.840139437Z,-1.349133,-0.441730,11.378144,0.035287,-0.073104,-0.803209
1980-01-06T00:26:49.860050844Z,-1.243788,-0.641646,11.172243,0.178165,0.023303,-0.808535
1980-01-06T00:26:49.880184125Z,-0.974440,-0.599748,10.985496,0.277767,0.049135,-0.824514
1980-01-06T00:26:49.899758604Z,-0.858321,-0.512359,10.731709,0.312389,0.026632,-0.813861
1980-01-06T00:26:49.919643187Z,-0.792481,-0.618901,10.635942,0.329965,-0.001731,-0.831971
1980-01-06T00:26:49.939523396Z,-0.847547,-0.628478,10.937612,0.328501,-0.070441,-0.822383
1980-01-06T00:26:49.959363656Z,-0.978031,-0.584185,11.133936,0.350605,-0.196941,-0.824514
1980-01-06T00:26:49.979264021Z,-1.152808,-0.556652,10.961554,0.380166,-0.197873,-0.810666
1980-01-06T00:26:49.999155427Z,-1.248576,-0.280122,10.975919,0.453136,-0.164051,-0.786164
1980-01-06T00:26:50.019024489Z,-1.318008,-0.050278,10.904093,0.540754,-0.115581,-0.756337
1980-01-06T00:26:50.058738187Z,-1.511938,-0.084994,11.210550,0.621049,-0.117845,-0.726510
1980-01-06T00:26:50.078604906Z,-1.626860,0.262165,11.244069,0.628905,-0.161787,-0.689225
1980-01-06T00:26:50.098474802Z,-1.731008,0.435745,11.114782,0.682168,-0.059522,-0.682834
1980-01-06T00:26:50.118568031Z,-1.859098,0.688333,10.937612,0.780971,0.040746,-0.660463
1980-01-06T00:26:50.138439802Z,-1.918953,0.853533,10.832266,0.839694,0.141414,-0.591221
1980-01-06T00:26:50.158302250Z,-1.948880,1.006762,10.860997,0.875114,0.210390,-0.578438
1980-01-06T00:26:50.178168031Z,-2.066196,1.276109,10.774805,0.847550,0.107725,-0.491086
1980-01-06T00:26:50.198020948Z,-1.857901,1.250970,10.947188,0.745019,0.016112,-0.385625
1980-01-06T00:26:50.217890062Z,-2.215834,1.270124,11.019014,0.753541,0.064582,-0.366451
1980-01-06T00:26:50.237568812Z,-2.226608,1.669956,11.167455,0.921320,0.102532,-0.344080
1980-01-06T00:26:50.257429854Z,-2.270900,1.697489,11.019014,0.939696,0.126234,-0.266316
1980-01-06T00:26:50.277573812Z,-2.462436,1.875857,10.262446,0.979909,0.156327,-0.211987
1980-01-06T00:26:50.297177302Z,-2.413355,2.087744,10.181044,0.987366,0.119709,-0.155528
1980-01-06T00:26:50.317044333Z,-2.346318,2.221819,10.090064,1.074718,0.016645,-0.169377
1980-01-06T00:26:50.376670635Z,-2.754529,2.800019,9.285612,0.981241,-0.298673,0.009587
1980-01-06T00:26:50.396519698Z,-2.677915,3.015497,8.955213,0.991228,-0.229165,0.116114
1980-01-06T00:26:50.416399385Z,-2.713828,3.029862,8.624812,0.998818,-0.153664,0.209857
1980-01-06T00:26:50.436258604Z,-2.608483,3.317167,8.174703,1.051149,-0.066446,0.298274
1980-01-06T00:26:50.456127093Z,-2.209848,3.386598,8.155549,1.180312,-0.173638,0.466585
1980-01-06T00:26:50.515743812Z,-1.948880,3.940856,7.877821,0.758468,0.088683,0.533697
1980-01-06T00:26:50.535617562Z,-2.011129,4.024653,7.887398,0.854474,0.087352,0.585895
1980-01-06T00:26:50.555470531Z,-1.881842,4.003105,8.064569,0.914662,0.086686,0.650876
1980-01-06T00:26:50.575389489Z,-1.728614,3.742137,7.561787,0.872318,0.150468,0.661529
1980-01-06T00:26:50.595269750Z,-1.395820,3.860650,7.130830,0.750744,0.192147,0.705204
1980-01-06T00:26:50.615134021Z,-1.223437,4.163517,7.063793,0.693886,0.144077,0.776577
1980-01-06T00:26:50.674712666Z,-0.956484,4.568137,6.920141,0.690690,0.224371,0.817057
1980-01-06T00:26:50.694609333Z,-0.648829,4.440047,6.795642,0.672181,0.230097,0.812796
1980-01-06T00:26:50.714451000Z,-0.703895,4.502296,6.661567,0.555002,0.117046,0.883103
1980-01-06T00:26:50.734316729Z,-0.690727,4.641160,6.541857,0.486825,0.086553,0.928910
1980-01-06T00:26:50.754180739Z,-0.577003,4.745308,6.388628,0.420380,0.103730,0.948085
1980-01-06T00:26:50.774066729Z,-0.416591,4.770447,6.407782,0.333694,0.072571,1.022653
1980-01-06T00:26:50.833859698Z,0.123301,5.045780,6.302437,0.314253,0.314652,1.095091
1980-01-06T00:26:50.853744645Z,0.310049,4.896142,6.043863,0.335292,0.447943,1.059937
1980-01-06T00:26:50.873596416Z,0.428562,4.764462,5.799654,0.316916,0.479768,1.043958
1980-01-06T00:26:50.893275427Z,0.544681,4.557363,5.541080,0.201202,0.418515,1.047154
1980-01-06T00:26:50.913357302Z,0.616507,4.426879,5.541080,0.060321,0.337156,1.052480
1980-01-06T00:26:50.933030322Z,0.829591,4.211401,5.665579,-0.054195,0.289219,1.086569
1980-01-06T00:26:50.972746156Z,1.017536,4.635174,6.063016,-0.267647,0.563125,1.153680
1980-01-06T00:26:50.992671000Z,1.161188,4.521450,6.158784,-0.248340,0.658866,1.162202
1980-01-06T00:26:51.012483552Z,1.352724,4.266468,6.254553,-0.286423,0.740225,1.146224
1980-01-06T00:26:51.032547666Z,1.380257,4.225766,6.268918,-0.321044,0.780971,1.112135
1980-01-06T00:26:51.052241156Z,1.453280,3.974375,6.474819,-0.423043,0.700544,1.083373
1980-01-06T00:26:51.072243395Z,1.320402,4.067749,6.714240,-0.504535,0.615722,1.081242
1980-01-06T00:26:51.111754645Z,1.284489,3.836708,6.690298,-0.410260,0.771384,0.968325
1980-01-06T00:26:51.131725843Z,1.483208,3.379416,6.857892,-0.440886,0.754872,0.892691
1980-01-06T00:26:51.151598656Z,1.424550,3.499126,7.020697,-0.606801,0.681369,0.831971
1980-01-06T00:26:51.171491781Z,1.235408,3.500323,7.533056,-0.680437,0.451272,0.819188
1980-01-06T00:26:51.191329437Z,1.338359,3.213019,7.762900,-0.739426,0.307994,0.790426
1980-01-06T00:26:51.211233499Z,1.210269,3.039439,7.762900,-0.689092,0.356730,0.741423
1980-01-06T00:26:51.231078968Z,1.223437,3.270479,8.117242,-0.737162,0.492684,0.691356
1980-01-06T00:26:51.290709072Z,1.608904,2.946065,8.653842,-0.687494,0.768321,0.584297
1980-01-06T00:26:51.310554229Z,1.625663,2.655170,8.950723,-0.692954,0.686829,0.524642
1980-01-06T00:26:51.330476312Z,1.333570,2.572570,8.960299,-0.637294,0.610795,0.464988
1980-01-06T00:26:51.350270843Z,1.016339,2.663549,9.218874,-0.582566,0.564457,0.391484
1980-01-06T00:26:51.370179385Z,0.957681,2.803610,9.041702,-0.561394,0.538091,0.291350
1980-01-06T00:26:51.390055583Z,0.781707,2.492364,8.725668,-0.503337,0.450074,0.226369
1980-01-06T00:26:51.410183656Z,0.797269,2.179921,8.807071,-0.546214,0.381498,0.154996
1980-01-06T00:26:51.429780374Z,0.727837,2.110489,8.807071,-0.648080,0.324106,0.145408
1980-01-06T00:26:51.449640739Z,0.446519,2.416947,9.180567,-0.658599,0.310924,0.162453
1980-01-06T00:26:51.469523968Z,0.332794,2.331953,9.678560,-0.587093,0.379234,0.116646
1980-01-06T00:26:51.489404385Z,0.384269,1.883040,10.004171,-0.556467,0.456332,0.074036
1980-01-06T00:26:51.509284489Z,0.395043,2.051831,9.980229,-0.510794,0.575375,0.021838
1980-01-06T00:26:51.529146572Z,0.381875,2.126051,9.903615,-0.466852,0.640623,-0.081493
1980-01-06T00:26:51.588746260Z,-0.046687,1.558625,9.659407,-0.398009,0.531034,-0.213585
1980-01-06T00:26:51.608612666Z,-0.295684,1.613692,9.759963,-0.399474,0.542619,-0.266849
1980-01-06T00:26:51.628540270Z,-0.239420,1.559822,9.764751,-0.443682,0.498676,-0.277501
1980-01-06T00:26:51.648364593Z,-0.290895,1.200692,9.803059,-0.418249,0.516253,-0.319046
1980-01-06T00:26:51.668219801Z,-0.392649,1.295263,10.779893,-0.687628,0.623712,-0.374440
1980-01-06T00:26:51.688121728Z,-0.804452,1.830367,10.133459,-0.300005,0.644351,-0.496945
1980-01-06T00:26:51.747690270Z,-1.247379,1.328782,10.166978,-0.297075,0.431831,-0.461792
1980-01-06T00:26:51.767578812Z,-1.403002,0.987608,10.224439,-0.257927,0.521846,-0.570449
1980-01-06T00:26:51.787464749Z,-1.673547,1.108515,10.056845,-0.226369,0.518517,-0.606668
1980-01-06T00:26:51.807362562Z,-1.630451,1.194707,10.200497,-0.182959,0.448742,-0.625842
1980-01-06T00:26:51.827193916Z,-1.626860,1.276109,10.291476,-0.193878,0.426638,-0.685497
1980-01-06T00:26:51.847079801Z,-1.798046,1.116895,10.119094,-0.253799,0.300804,-0.697215
1980-01-06T00:26:51.906659593Z,-1.853112,0.650026,10.267534,-0.223040,0.088550,-0.820786
1980-01-06T00:26:51.926505478Z,-1.786075,0.739808,10.559627,-0.265117,0.003196,-0.790958
1980-01-06T00:26:51.946400583Z,-1.820790,0.684742,10.760739,-0.243280,0.054195,-0.815459
1980-01-06T00:26:51.966472405Z,-1.893813,0.539892,10.444705,-0.147672,0.195476,-0.877245
1980-01-06T00:26:51.986320843Z,-2.050634,0.620098,10.559627,-0.165515,0.193745,-0.861266
1980-01-06T00:26:52.006000478Z,-2.001553,0.598550,10.564415,-0.159923,0.102265,-0.844221
1980-01-06T00:26:52.045714905Z,-1.885434,0.339977,10.506655,-0.137552,0.111187,-0.945954
1980-01-06T00:26:52.065614905Z,-2.087744,0.264559,10.679037,-0.132892,0.027431,-0.935301
1980-01-06T00:26:52.085509489Z,-2.261323,0.227449,10.702979,-0.133158,-0.005726,-0.938497
1980-01-06T00:26:52.105359697Z,-2.208651,0.395043,10.827477,-0.126900,-0.024102,-0.929975
1980-01-06T00:26:52.125229853Z,-2.190695,0.322020,10.832266,-0.083623,-0.043143,-0.939562
1980-01-06T00:26:52.145078447Z,-2.201468,0.311246,10.813112,-0.049135,-0.075634,-0.965129
1980-01-06T00:26:52.204688655Z,-2.355895,0.125696,10.889728,-0.024901,-0.165382,-0.981108
1980-01-06T00:26:52.224578499Z,-2.321178,0.001197,10.837054,0.027031,-0.131027,-0.987499
1980-01-06T00:26:52.244420218Z,-2.354697,-0.008380,10.841843,0.071240,-0.089349,-1.000282
1980-01-06T00:26:52.264352718Z,-2.293645,-0.046687,10.856209,0.119709,-0.090681,-1.008805
1980-01-06T00:26:52.284224593Z,-2.390610,-0.244209,10.980707,0.171374,-0.187486,-1.009870
1980-01-06T00:26:52.304094593Z,-2.414552,-0.257377,10.980707,0.192280,-0.253799,-0.997087
1980-01-06T00:26:52.363722874Z,-2.652776,-0.065841,10.578481,0.353002,-0.120641,-0.980042
1980-01-06T00:26:52.383560791Z,-2.760514,0.088585,10.588058,0.360858,-0.128497,-0.943823
1980-01-06T00:26:52.403399228Z,-2.649184,0.274136,10.741286,0.381897,-0.163252,-0.917192
1980-01-06T00:26:52.423537457Z,-2.651578,0.357933,10.856209,0.457930,-0.199204,-0.909735
1980-01-06T00:26:52.443141468Z,-2.844312,0.418985,10.837054,0.553271,-0.247274,-0.894821
1980-01-06T00:26:52.463037614Z,-2.940080,0.416591,10.626365,0.567919,-0.284159,-0.851146
1980-01-06T00:26:52.522637718Z,-2.634819,0.539892,10.573692,0.504802,-0.275903,-0.719053
1980-01-06T00:26:52.542490686Z,-2.633622,0.894234,10.329484,0.580835,-0.282428,-0.722249
1980-01-06T00:26:52.562374176Z,-2.626439,0.899023,10.238504,0.558864,-0.329300,-0.664724
1980-01-06T00:26:52.582452197Z,-2.588132,1.126472,10.128371,0.519316,-0.346078,-0.606135
1980-01-06T00:26:52.602102301Z,-2.530671,1.246182,10.118794,0.534096,-0.316650,-0.573112
1980-01-06T00:26:52.661758759Z,-2.521094,1.070208,9.802759,0.549277,-0.275104,-0.464455
1980-01-06T00:26:52.681776311Z,-2.517503,1.252167,9.797971,0.576840,-0.315984,-0.421844
1980-01-06T00:26:52.701502874Z,-2.346318,1.327585,9.678261,0.620782,-0.297608,-0.429301
1980-01-06T00:26:52.721330999Z,-2.237381,1.373075,9.563339,0.571248,-0.345279,-0.373908
1980-01-06T00:26:52.741179541Z,-2.193089,1.680730,9.922470,0.513191,-0.336224,-0.345145
1980-01-06T00:26:52.761051624Z,-2.231396,1.887828,9.759664,0.599344,-0.276969,-0.352602
1980-01-06T00:26:52.820684124Z,-2.296039,2.236184,10.051757,0.588159,-0.275903,-0.245011
1980-01-06T00:26:52.840577822Z,-2.294842,2.199074,9.865008,0.661395,-0.305731,-0.225836
1980-01-06T00:26:52.860468551Z,-2.194286,2.312799,9.778817,0.661262,-0.298940,-0.192813
1980-01-06T00:26:52.880303603Z,-2.139219,2.452860,9.276035,0.684165,-0.305731,-0.149137
1980-01-06T00:26:52.900200478Z,-1.983596,2.616863,9.376592,0.600143,-0.296809,-0.099070
1980-01-06T00:26:52.920022301Z,-1.980005,2.742558,9.563339,0.568318,-0.311723,-0.057524
1980-01-06T00:26:52.959812197Z,-1.768118,2.888604,9.362226,0.657001,-0.274705,-0.023436
1980-01-06T00:26:52.979655790Z,-1.613692,2.917335,9.103653,0.609064,-0.241549,0.000000
1980-01-06T00:26:52.999524593Z,-1.474828,3.081338,8.897752,0.519715,-0.242481,0.037284
1980-01-06T00:26:53.019391415Z,-1.473631,3.139996,8.835502,0.450207,-0.237554,0.069242
1980-01-06T00:26:53.039260895Z,-1.447295,3.271677,8.945636,0.399607,-0.230363,0.099070
1980-01-06T00:26:53.059122665Z,-1.420959,3.414132,9.036615,0.415053,-0.230496,0.107592
1980-01-06T00:26:53.118734645Z,-1.201889,3.078943,8.265682,0.449009,-0.338221,0.149137
1980-01-06T00:26:53.138598186Z,-1.113304,3.168726,8.088511,0.293347,-0.254731,0.118244
1980-01-06T00:26:53.158493290Z,-1.033098,3.624821,8.145972,0.220643,-0.242747,0.171507
1980-01-06T00:26:53.178539488Z,-1.072602,3.910928,7.810784,0.347143,-0.191348,0.209857
1980-01-06T00:26:53.198196780Z,-0.902614,3.689465,7.849091,0.416119,-0.113184,0.263120
1980-01-06T00:26:53.218208707Z,-0.815226,3.630807,7.887398,0.413189,-0.030360,0.285491
1980-01-06T00:26:53.238166988Z,-0.681150,3.760094,7.992743,0.386025,-0.026498,0.303600
1980-01-06T00:26:53.277685738Z,-0.556652,3.848679,8.059781,0.287887,-0.181095,0.314253
1980-01-06T00:26:53.297586519Z,-0.554258,3.912126,8.203433,0.270177,-0.198405,0.320644
1980-01-06T00:26:53.317430009Z,-0.555455,4.181473,8.399757,0.258726,-0.174703,0.335558
1980-01-06T00:26:53.337349488Z,-0.567426,4.286818,8.423699,0.287887,-0.112652,0.349406
1980-01-06T00:26:53.357207353Z,-0.457293,4.176685,8.347085,0.298940,-0.103331,0.371777
1980-01-06T00:26:53.377054280Z,-0.361524,4.186262,8.265682,0.263919,-0.101200,0.390952
1980-01-06T00:26:53.416795790Z,-0.102951,4.456807,8.438065,0.198006,-0.165382,0.395213
1980-01-06T00:26:53.436633342Z,0.033519,4.483143,8.442853,0.251269,-0.208658,0.382430
1980-01-06T00:26:53.456577613Z,0.117316,4.430470,8.299201,0.278433,-0.224371,0.362190
1980-01-06T00:26:53.476415947Z,0.211887,4.369418,8.174703,0.260324,-0.202134,0.363255
1980-01-06T00:26:53.496278030Z,0.248997,4.406528,8.007109,0.250470,-0.158591,0.400539
1980-01-06T00:26:53.516129801Z,0.416591,4.480749,7.944859,0.233160,-0.021572,0.395213
1980-01-06T00:26:53.536011207Z,0.575805,4.552575,7.911340,0.223705,0.049535,0.412257
1980-01-06T00:26:53.575738186Z,0.661997,4.554969,7.940071,0.248739,0.143944,0.445280
1980-01-06T00:26:53.595627457Z,0.476446,4.605247,7.691074,0.269379,0.230230,0.497478
1980-01-06T00:26:53.615511415Z,0.519542,4.581305,7.724593,0.235690,0.299605,0.585895
1980-01-06T00:26:53.635338082Z,0.500388,4.695030,7.743746,0.218645,0.434494,0.633832
1980-01-06T00:26:53.655231259Z,0.732626,4.534618,7.786842,0.175768,0.589224,0.625310
1980-01-06T00:26:53.675135582Z,1.061828,4.455609,7.844303,0.091080,0.659132,0.576308
1980-01-06T00:26:53.695000217Z,1.252167,4.602853,8.059781,0.032757,0.570449,0.512392
1980-01-06T00:26:53.734700530Z,0.962469,4.756082,8.083723,0.124902,0.245676,0.443150
1980-01-06T00:26:53.754600009Z,0.958878,4.481946,7.983166,0.091213,0.173372,0.409061
1980-01-06T00:26:53.774468030Z,0.883460,4.485537,8.035839,0.041013,0.106127,0.386691
1980-01-06T00:26:53.794329280Z,0.899023,4.521450,8.174703,0.018509,0.141281,0.321710
1980-01-06T00:26:53.814181155Z,0.847547,4.781221,8.222587,0.041013,0.106260,0.321710
1980-01-06T00:26:53.834032613Z,0.808043,4.666299,8.098088,0.057924,0.130894,0.300404
1980-01-06T00:26:53.873805061Z,0.670376,4.643554,7.925705,-0.010653,0.267914,0.304665
1980-01-06T00:26:53.893873498Z,0.800860,4.750096,8.016685,-0.041545,0.328501,0.305731
1980-01-06T00:26:53.913748655Z,0.785298,4.799177,8.265682,-0.027031,0.301603,0.283360
1980-01-06T00:26:53.933382092Z,0.755371,4.803966,8.198645,0.006525,0.252601,0.252467
1980-01-06T00:26:53.953306936Z,0.721852,4.705803,8.155549,0.018243,0.165515,0.218379
1980-01-06T00:26:53.973149540Z,0.554258,4.648343,8.102877,-0.002264,0.055261,0.226901
1980-01-06T00:26:54.032750790Z,0.459687,4.656722,8.332720,-0.025699,0.130761,0.253533
1980-01-06T00:26:54.052657300Z,0.474052,4.695030,8.481160,-0.044475,0.125701,0.262055
1980-01-06T00:26:54.072481415Z,0.441730,4.734534,8.552986,-0.018109,0.094542,0.267381
1980-01-06T00:26:54.092359905Z,0.397437,4.734534,8.418911,0.009454,0.097738,0.262055
1980-01-06T00:26:54.112236207Z,0.457293,4.738125,8.375815,-0.008256,0.103464,0.259924
1980-01-06T00:26:54.132101780Z,0.439336,4.753687,8.390181,-0.005193,0.078031,0.273773
1980-01-06T00:26:54.191745946Z,0.389058,4.739322,8.466795,0.014248,0.158591,0.311057
1980-01-06T00:26:54.211621832Z,0.378284,4.677073,8.519467,0.056592,0.218645,0.314253
1980-01-06T00:26:54.231444071Z,0.380678,4.778827,8.371027,0.092678,0.235556,0.308926
1980-01-06T00:26:54.251351259Z,0.377087,4.768053,8.232163,0.081892,0.176434,0.309992
1980-01-06T00:26:54.271235738Z,0.347159,4.857835,8.145972,0.057791,0.126900,0.319579
1980-01-06T00:26:54.291085946Z,0.250194,4.900931,8.045416,0.052864,0.115714,0.339819
1980-01-06T00:26:54.350667405Z,0.397437,4.799177,8.179491,-0.046738,0.110255,0.381364
1980-01-06T00:26:54.370546102Z,0.380678,4.752491,8.275259,-0.043409,0.145275,0.383495
1980-01-06T00:26:54.390428186Z,0.403423,4.777629,8.375815,-0.039282,0.148871,0.414388
1980-01-06T00:26:54.410307509Z,0.415394,4.681861,8.442853,-0.009188,0.191747,0.411192
1980-01-06T00:26:54.430145269Z,0.501585,4.720169,8.524256,-0.028762,0.213852,0.412257
1980-01-06T00:26:54.450009332Z,0.605733,4.882974,8.500314,-0.024501,0.194277,0.406931
1980-01-06T00:26:54.509630373Z,0.666785,4.692636,8.308778,-0.089349,0.145941,0.431432
1980-01-06T00:26:54.529550425Z,0.657208,4.704607,8.433276,-0.118244,0.146341,0.445280
1980-01-06T00:26:54.549399957Z,0.727837,4.769250,8.533833,-0.098537,0.192546,0.449541
1980-01-06T00:26:54.569276050Z,0.823605,4.760870,8.529044,-0.079229,0.231562,0.423975
1980-01-06T00:26:54.589141206Z,0.913388,4.674679,8.375815,-0.094010,0.157393,0.413322
1980-01-06T00:26:54.629036519Z,0.867898,4.576517,8.318355,-0.114915,0.106926,0.405865
1980-01-06T00:26:54.648980686Z,0.858321,4.510676,8.265682,-0.121840,0.173771,0.390952
1980-01-06T00:26:54.668815581Z,0.895431,4.495114,8.260894,-0.150868,0.177633,0.392017
1980-01-06T00:26:54.688493186Z,0.934936,4.450821,8.438065,-0.171907,0.169111,0.396278
1980-01-06T00:26:54.708322509Z,0.992397,4.420894,8.529044,-0.143012,0.178964,0.385625
1980-01-06T00:26:54.728199644Z,0.962469,4.335899,8.485949,-0.135821,0.186421,0.362190
1980-01-06T00:26:54.748092248Z,1.003170,4.261679,8.529044,-0.118111,0.147406,0.370712
1980-01-06T00:26:54.807711675Z,0.934936,4.115633,8.586505,-0.041279,0.257527,0.337689
1980-01-06T00:26:54.827542196Z,0.962469,4.179079,8.557775,-0.043543,0.291350,0.327036
1980-01-06T00:26:54.847436258Z,0.903811,4.315548,8.672696,-0.062185,0.252867,0.323840
1980-01-06T00:26:54.867307769Z,0.926556,4.254497,8.672696,-0.036752,0.203332,0.313187
1980-01-06T00:26:54.887183706Z,0.902614,4.218584,8.514679,-0.046872,0.186022,0.303600
1980-01-06T00:26:54.907025008Z,0.760159,4.211401,8.543409,-0.083623,0.172573,0.314253
1980-01-06T00:26:54.966670477Z,0.702698,4.204218,8.529044,-0.097072,0.236888,0.286556
1980-01-06T00:26:54.986498654Z,0.708684,4.139575,8.524256,-0.140748,0.216515,0.273773
1980-01-06T00:26:55.006395998Z,0.791284,4.098873,8.677485,-0.172706,0.116380,0.290817
1980-01-06T00:26:55.026235633Z,0.677559,4.003105,8.840290,-0.164850,0.078430,0.281230
1980-01-06T00:26:55.046128446Z,0.562637,4.049792,8.797194,-0.159790,0.107458,0.291882
1980-01-06T00:26:55.105736779Z,0.575805,3.812766,8.596082,-0.088017,0.218379,0.322775
1980-01-06T00:26:55.125599800Z,0.521936,3.843891,8.505102,-0.097605,0.243546,0.324905
1980-01-06T00:26:55.145552560Z,0.555455,3.865439,8.529044,-0.119443,0.220909,0.340884
1980-01-06T00:26:55.165400894Z,0.551863,3.871424,8.442853,-0.114516,0.173638,0.337689
1980-01-06T00:26:55.185204071Z,0.543484,3.764882,8.385392,-0.115714,0.138218,0.346211
1980-01-06T00:26:55.205112508Z,0.489614,3.610456,8.409334,-0.140215,0.140748,0.364320
1980-01-06T00:26:55.264809487Z,0.599748,3.782839,8.634389,-0.139816,0.224105,0.376038
1980-01-06T00:26:55.284573758Z,0.675165,3.497929,8.634389,-0.146341,0.192413,0.370712
1980-01-06T00:26:55.304637717Z,0.721852,3.439271,8.811560,-0.190283,0.174171,0.366451
1980-01-06T00:26:55.324339383Z,0.641646,3.497929,8.864232,-0.195875,0.202134,0.368581
1980-01-06T00:26:55.344242196Z,0.588974,3.671508,8.658331,-0.127299,0.251935,0.361124
1980-01-06T00:26:55.364064071Z,0.538695,3.351882,8.687061,-0.118377,0.234757,0.371777
1980-01-06T00:26:55.403779696Z,0.575805,3.465607,8.864232,-0.184024,0.253133,0.371777
1980-01-06T00:26:55.423666102Z,0.520739,3.438074,8.758887,-0.166581,0.227434,0.367516
1980-01-06T00:26:55.443544175Z,0.541090,3.290830,8.907329,-0.207860,0.206128,0.384560
1980-01-06T00:26:55.463415529Z,0.544681,3.280056,9.065346,-0.213585,0.270311,0.372842
1980-01-06T00:26:55.483297508Z,0.462081,3.186682,9.055769,-0.170176,0.319046,0.378169
1980-01-06T00:26:55.503120998Z,0.336385,2.958036,8.945636,-0.131693,0.343414,0.349406
1980-01-06T00:26:55.523049487Z,0.296881,2.937685,8.998308,-0.207993,0.172839,0.345145
1980-01-06T00:26:55.582615581Z,0.495600,3.062184,9.151537,-0.249538,0.165249,0.346743
1980-01-06T00:26:55.602465789Z,0.762553,3.112462,9.266459,-0.239418,0.256995,0.377636
1980-01-06T00:26:55.622355164Z,0.696713,3.041833,9.194633,-0.185356,0.328101,0.373375
1980-01-06T00:26:55.642228914Z,0.842759,2.845509,9.084499,-0.173505,0.379500,0.303067
1980-01-06T00:26:55.662115373Z,0.843956,2.868254,9.185056,-0.245011,0.198672,0.283893
1980-01-06T00:26:55.682019956Z,0.772130,2.828749,9.395745,-0.262854,0.027431,0.240217
1980-01-06T00:26:55.721707769Z,0.530316,2.686294,9.295788,-0.189217,0.109323,0.194411
1980-01-06T00:26:55.741630946Z,0.464475,2.683900,9.300576,-0.189217,0.188685,0.191215
1980-01-06T00:26:55.761452248Z,0.456095,2.649184,9.305365,-0.212254,0.184024,0.194411
1980-01-06T00:26:55.781352977Z,0.447716,2.625242,9.511266,-0.243013,0.141014,0.193345
1980-01-06T00:26:55.801193550Z,0.266953,2.694674,9.348460,-0.211854,0.125435,0.178432
1980-01-06T00:26:55.821093081Z,0.253785,2.475605,9.262269,-0.163518,0.134090,0.203998
1980-01-06T00:26:55.880689539Z,0.314838,2.366668,9.338883,-0.212653,0.189351,0.152865
1980-01-06T00:26:55.900555216Z,0.280122,2.354697,9.156923,-0.191481,0.165382,0.113451
1980-01-06T00:26:55.920425321Z,0.080206,2.187103,8.936657,-0.165249,0.039015,0.121973
1980-01-06T00:26:55.940297873Z,0.001197,1.920150,9.018060,-0.210656,0.042611,0.120907
1980-01-06T00:26:55.960173654Z,-0.074220,2.118869,8.922292,-0.225436,0.194144,0.103863
1980-01-06T00:26:55.980030268Z,-0.026336,2.388216,8.821735,-0.227567,0.249671,0.125168
1980-01-06T00:26:56.039624643Z,-0.349553,2.391808,9.314941,-0.234757,-0.000799,0.496945
1980-01-06T00:26:56.059522664Z,0.040701,1.091756,9.070732,-0.207860,0.358195,0.411724
1980-01-06T00:26:56.079388706Z,0.263362,1.644817,9.578303,-0.344213,0.786164,0.180562
1980-01-06T00:26:56.099231414Z,0.480037,1.902193,9.832088,-0.336756,0.418782,0.228499
1980-01-06T00:26:56.119104279Z,0.197522,1.819593,9.472959,-0.286955,0.274305,0.154996
1980-01-06T00:26:56.178729643Z,-0.265756,1.568202,9.492112,-0.253400,0.191481,0.069775
1980-01-06T00:26:56.198609018Z,-0.169988,1.602918,9.496901,-0.266183,0.289885,0.056992
1980-01-06T00:26:56.218630841Z,-0.116119,1.572991,9.659706,-0.248340,0.353135,0.041013
1980-01-06T00:26:56.238561831Z,-0.098162,1.555034,10.152911,-0.311856,0.397743,0.021838
1980-01-06T00:26:56.258411623Z,-0.128090,1.732205,9.856030,-0.125568,0.454734,-0.066579
1980-01-06T00:26:56.278316310Z,-0.281319,1.600524,9.539996,-0.145941,0.444481,-0.117712
1980-01-06T00:26:56.318041258Z,-0.456095,1.253365,9.563938,-0.143278,0.306130,-0.206128
1980-01-06T00:26:56.337693966Z,-0.553061,1.273715,9.659706,-0.181627,0.246742,-0.221042
1980-01-06T00:26:56.357573029Z,-0.632069,1.466449,9.736320,-0.170842,0.140748,-0.192280
1980-01-06T00:26:56.377453497Z,-0.712275,1.238999,9.563938,-0.137952,0.169111,-0.207194
1980-01-06T00:26:56.397303550Z,-0.586579,1.100136,9.731532,-0.160988,0.222640,-0.240217
1980-01-06T00:26:56.417182404Z,-0.556652,1.329979,9.851242,-0.205729,0.226901,-0.257261
1980-01-06T00:26:56.437056831Z,-0.602142,1.520318,9.578303,-0.202134,0.128098,-0.194411
1980-01-06T00:26:56.496653081Z,-0.858321,0.670376,9.358037,-0.094143,0.008788,-0.000533
1980-01-06T00:26:56.516574852Z,-1.125275,0.805649,9.626187,-0.029295,0.454202,-0.298806
1980-01-06T00:26:56.536405581Z,-1.240196,1.103727,9.678860,-0.058856,0.507465,-0.408529
1980-01-06T00:26:56.556271883Z,-1.320402,1.077391,9.616611,-0.065381,0.268047,-0.361657
1980-01-06T00:26:56.576163445Z,-1.333570,0.970849,9.568727,-0.060587,0.192680,-0.372310
1980-01-06T00:26:56.635750372Z,-1.249773,0.901417,9.741109,-0.054728,0.077764,-0.402137
1980-01-06T00:26:56.655629070Z,-1.301249,0.985214,9.937433,-0.091746,0.121307,-0.424508
1980-01-06T00:26:56.675483602Z,-1.284489,1.103727,10.071508,-0.087618,0.125035,-0.436225
1980-01-06T00:26:56.695340164Z,-1.314417,1.013944,10.162488,-0.032757,0.064315,-0.426638
1980-01-06T00:26:56.715199852Z,-1.289278,1.070208,10.109816,0.001332,0.040613,-0.446878
1980-01-06T00:26:56.735136414Z,-1.333570,1.177947,10.076297,0.074702,-0.042877,-0.450074
1980-01-06T00:26:56.814818237Z,-1.179144,0.529119,9.856030,0.001997,-0.178831,-0.619451
1980-01-06T00:26:56.834702716Z,-1.104924,0.761356,9.942222,-0.033023,-0.180030,-0.655670
1980-01-06T00:26:56.854520737Z,-1.253365,0.697910,9.951798,-0.039814,-0.225969,-0.625842
1980-01-06T00:26:56.874169799Z,-1.432930,0.720655,10.085874,-0.030360,-0.203332,-0.604537
1980-01-06T00:26:56.894062716Z,-1.497573,0.742203,10.081085,0.022104,-0.168977,-0.558731
1980-01-06T00:26:56.933766831Z,-1.298854,0.672771,9.764452,0.040613,0.079495,-0.592287
1980-01-06T00:26:56.953677820Z,-1.244985,0.684742,9.750087,0.004661,0.131693,-0.584830
1980-01-06T00:26:56.973532351Z,-1.284489,0.774524,9.936835,-0.024102,0.111054,-0.567785
1980-01-06T00:26:56.993411883Z,-1.369483,0.714669,10.023026,-0.039548,0.079895,-0.559263
1980-01-06T00:26:57.013260633Z,-1.562217,0.739808,10.008661,-0.027564,0.030893,-0.532632
1980-01-06T00:26:57.033149278Z,-1.545457,0.809240,9.912893,-0.078031,0.032091,-0.533697
1980-01-06T00:26:57.053037820Z,-1.422156,0.828394,9.874586,-0.040480,0.025833,-0.533697
1980-01-06T00:26:57.092778445Z,-1.351527,0.616507,9.865008,0.030626,0.048070,-0.602939
1980-01-06T00:26:57.112618237Z,-1.455675,0.731429,9.807548,0.006525,0.003462,-0.583764
1980-01-06T00:26:57.132497612Z,-1.441309,0.784101,9.841066,0.008123,-0.007191,-0.585895
1980-01-06T00:26:57.152368706Z,-1.392228,0.775721,9.764452,0.005459,0.025833,-0.618918
1980-01-06T00:26:57.172243810Z,-1.484405,0.745794,9.831490,-0.003595,-0.012916,-0.619983
1980-01-06T00:26:57.192105268Z,-1.671153,0.744597,9.994296,-0.003995,-0.107059,-0.611461
1980-01-06T00:26:57.251729643Z,-1.926135,0.885855,9.687838,0.030094,-0.174836,-0.567785
1980-01-06T00:26:57.271611466Z,-1.820790,0.854730,9.668684,0.007856,-0.101333,-0.529436
1980-01-06T00:26:57.291433133Z,-1.736993,0.840365,9.783606,-0.004527,-0.022637,-0.501739
1980-01-06T00:26:57.311513549Z,-1.642422,0.853533,9.960777,-0.001864,0.020639,-0.494282
1980-01-06T00:26:57.331173237Z,-1.595735,0.852336,9.946412,0.031292,0.010653,-0.499609
1980-01-06T00:26:57.351058705Z,-1.544260,0.843956,9.841066,0.029295,-0.018509,-0.496413
1980-01-06T00:26:57.390773341Z,-1.414973,0.839168,9.860819,0.013582,-0.034488,-0.496945
1980-01-06T00:26:57.410697195Z,-1.400608,0.826000,9.788993,0.042877,-0.054728,-0.502272
1980-01-06T00:26:57.430562091Z,-1.434127,0.742203,9.784204,0.063117,-0.097072,-0.498011
1980-01-06T00:26:57.450385060Z,-1.578976,0.682347,9.798570,0.103464,-0.151134,-0.486293
1980-01-06T00:26:57.470314487Z,-1.660379,0.657208,9.717167,0.133691,-0.154730,-0.492684
1980-01-06T00:26:57.490159747Z,-1.601721,0.527921,9.415498,0.110521,-0.105328,-0.519316
1980-01-06T00:26:57.510029487Z,-1.458069,0.664391,9.367614,0.070707,-0.061386,-0.513990
1980-01-06T00:26:57.549798810Z,-1.593341,0.623690,9.559150,0.097338,-0.050600,-0.518251
1980-01-06T00:26:57.569669903Z,-1.653196,0.639252,9.563938,0.084023,-0.053796,-0.509729
1980-01-06T00:26:57.589511466Z,-1.589750,0.739808,9.674071,0.083889,-0.075501,-0.491619
1980-01-06T00:26:57.609400789Z,-1.642422,0.671574,9.707590,0.105861,-0.062584,-0.489489
1980-01-06T00:26:57.629301101Z,-1.685518,0.696713,9.664495,0.117578,-0.025966,-0.486293
1980-01-06T00:26:57.649114434Z,-1.620875,0.696713,9.731532,0.105195,0.006791,-0.472444
1980-01-06T00:26:57.708713184Z,-1.386243,0.726640,10.037990,0.125967,0.059788,-0.489489
1980-01-06T00:26:57.728597559Z,-1.370680,0.642843,10.090662,0.137286,0.009454,-0.492684
1980-01-06T00:26:57.748473497Z,-1.456872,0.714669,9.990106,0.160322,0.002796,-0.507598
1980-01-06T00:26:57.768326987Z,-1.502362,0.691924,9.937433,0.170442,0.021039,-0.494815
1980-01-06T00:26:57.788196101Z,-1.382651,0.669179,9.923068,0.175768,0.056459,-0.503337
1980-01-06T00:26:57.808087143Z,-1.284489,0.703895,9.980529,0.164184,0.032890,-0.501207
1980-01-06T00:26:57.867698549Z,-1.005565,0.700304,10.047566,0.224771,-0.021838,-0.570449
1980-01-06T00:26:57.887764903Z,-1.017536,0.560243,10.081085,0.166314,0.000666,-0.635430
1980-01-06T00:26:57.907407195Z,-1.143231,0.782904,10.296564,0.170842,-0.052864,-0.665257
1980-01-06T00:26:57.927535268Z,-1.229423,0.811634,10.521619,0.196408,-0.139550,-0.635430
1980-01-06T00:26:57.947376153Z,-1.101333,0.754174,10.679636,0.233958,-0.043809,-0.711063
1980-01-06T00:26:57.967014903Z,-1.084573,0.925359,10.861595,0.269379,-0.005992,-0.747282
1980-01-06T00:26:58.026624903Z,-1.703475,0.985214,10.694001,0.379234,-0.126633,-0.802676
1980-01-06T00:26:58.046517195Z,-1.881842,1.171962,10.794558,0.382030,-0.110388,-0.832503
1980-01-06T00:26:58.066397924Z,-2.105700,1.489193,10.909479,0.425306,-0.194810,-0.768588
1980-01-06T00:26:58.086273080Z,-2.288857,1.507150,10.914268,0.436359,-0.210656,-0.721716
1980-01-06T00:26:58.106366674Z,-2.370260,1.635240,10.875960,0.504003,-0.157126,-0.745152
1980-01-06T00:26:58.165735268Z,-2.585738,1.754950,10.852018,0.488690,-0.241948,-0.578971
1980-01-06T00:26:58.185615111Z,-2.674323,1.988384,10.919056,0.464854,-0.192147,-0.547013
1980-01-06T00:26:58.205470788Z,-2.772485,2.176329,10.928633,0.567386,-0.203332,-0.468183
1980-01-06T00:26:58.225351882Z,-2.916138,2.160767,10.770616,0.667654,-0.237687,-0.389354
1980-01-06T00:26:58.245218393Z,-2.870648,2.345121,10.794558,0.744353,-0.241549,-0.331830
1980-01-06T00:26:58.265108393Z,-2.868254,2.363077,10.617387,0.828908,-0.223838,-0.298806
1980-01-06T00:26:58.285042455Z,-2.784456,2.375048,10.382755,0.774580,-0.215716,-0.211455
1980-01-06T00:26:58.324747090Z,-2.906561,2.956839,10.521619,0.895487,-0.175502,-0.093211
1980-01-06T00:26:58.344596153Z,-3.027468,2.937685,10.497677,0.954876,-0.171108,-0.026099
1980-01-06T00:26:58.364484538Z,-3.136404,2.928109,9.865607,1.004410,-0.093876,0.037817
1980-01-06T00:26:58.384285372Z,-3.090914,3.049016,9.496901,1.118527,-0.034754,0.107059
1980-01-06T00:26:58.404156778Z,-2.947262,3.020285,8.946234,1.143028,-0.071106,0.217846
1980-01-06T00:26:58.424090632Z,-2.867057,3.191471,8.611046,0.945954,-0.002663,0.293480
1980-01-06T00:26:58.483632663Z,-2.856283,4.485537,8.702025,0.782303,-0.118111,0.512924
1980-01-06T00:26:58.503573601Z,-2.784456,4.325125,8.587104,0.983238,-0.073370,0.543817
1980-01-06T00:26:58.523381153Z,-2.656367,4.007894,8.251915,1.020656,0.086819,0.549143
1980-01-06T00:26:58.543293288Z,-2.458845,3.926491,7.706038,0.937299,0.165648,0.610929
1980-01-06T00:26:58.563139955Z,-2.258929,3.979163,6.710050,0.875780,0.213985,0.670583
1980-01-06T00:26:58.583036153Z,-1.764527,4.230555,7.126641,0.735698,0.160722,0.777110
1980-01-06T00:26:58.622770267Z,-1.918953,4.564546,7.006930,0.107458,0.217846,0.829308
1980-01-06T00:26:58.642659382Z,-1.891419,4.939238,7.068581,0.105461,0.120108,0.943957
1980-01-06T00:26:58.662527142Z,-1.830367,4.714183,6.982390,0.240350,0.049268,1.008938
1980-01-06T00:26:58.682382976Z,-1.695095,4.483143,7.087735,0.270976,0.078031,1.015329
1980-01-06T00:26:58.702237611Z,-1.657985,4.325125,6.867468,0.231162,0.115981,1.015329
1980-01-06T00:26:58.722325320Z,-1.337162,4.356250,6.797438,0.132093,0.098537,1.010402
1980-01-06T00:26:58.742176205Z,-1.085770,4.535815,6.716035,0.106793,-0.061652,1.046621
1980-01-06T00:26:58.781730528Z,-0.769736,4.516662,6.553229,0.139150,-0.180695,1.110537
1980-01-06T00:26:58.801587819Z,-0.612916,4.557363,6.548441,0.054195,-0.067911,1.121190
1980-01-06T00:26:58.821460997Z,-0.468066,4.437653,6.620267,-0.001332,0.013982,1.175518
1980-01-06T00:26:58.841321986Z,-0.148441,4.332308,6.711246,-0.056592,0.179231,1.186171
1980-01-06T00:26:58.861421934Z,0.027533,4.345476,7.017704,-0.066978,0.226502,1.213868
1980-01-06T00:26:58.881324799Z,0.130484,4.294001,7.170933,-0.030227,0.269245,1.209607
1980-01-06T00:26:58.940701465Z,0.678756,4.357447,6.787861,-0.098537,0.217181,1.071123
1980-01-06T00:26:58.960531465Z,0.833182,3.983952,7.108684,-0.151933,0.077897,1.113733
1980-01-06T00:26:58.980407038Z,0.875081,3.886986,7.305009,-0.195875,0.141281,1.154213
1980-01-06T00:26:59.000286465Z,1.009156,3.726575,7.300220,-0.137286,0.282694,1.161670
1980-01-06T00:26:59.020190007Z,1.323994,3.415329,7.209240,-0.100934,0.399074,1.177649
1980-01-06T00:26:59.040001674Z,1.438915,3.207033,7.261913,-0.138751,0.522112,1.187236
1980-01-06T00:26:59.079845371Z,1.635240,3.253720,7.410354,-0.167513,0.708800,1.142495
1980-01-06T00:26:59.099612663Z,1.602918,3.318364,7.166145,-0.149803,0.770851,1.064731
1980-01-06T00:26:59.119497663Z,1.632846,3.331532,7.041646,-0.161254,0.757003,1.012533
1980-01-06T00:26:59.139364434Z,1.559822,2.985569,6.830957,-0.188418,0.697881,0.963531
1980-01-06T00:26:59.159410007Z,1.501164,2.865860,6.936302,-0.310791,0.641155,0.907072
1980-01-06T00:26:59.179088028Z,1.492785,3.008314,7.041646,-0.424108,0.578704,0.864461
1980-01-06T00:26:59.238745371Z,1.340753,3.468001,7.989750,-0.466452,0.778974,0.701476
1980-01-06T00:26:59.258601882Z,1.487996,2.949656,7.807791,-0.395213,0.671515,0.616255
1980-01-06T00:26:59.278464642Z,1.634043,1.905785,8.085519,-0.545149,0.499875,0.618385
1980-01-06T00:26:59.298337559Z,1.544260,2.426523,8.650550,-0.724645,0.547812,0.580036
1980-01-06T00:26:59.318210215Z,1.262941,3.026271,8.741529,-0.666988,0.671515,0.508663
1980-01-06T00:26:59.338090736Z,1.112107,2.861071,8.794202,-0.519849,0.784433,0.420246
1980-01-06T00:26:59.397685944Z,0.877475,2.406173,8.937854,-0.549676,0.730105,0.247674
1980-01-06T00:26:59.417586100Z,0.784101,2.093729,9.134179,-0.516387,0.725844,0.133691
1980-01-06T00:26:59.437467663Z,0.870292,1.892616,9.598654,-0.601874,0.574177,0.093211
1980-01-06T00:26:59.457369850Z,0.814029,2.001553,9.885958,-0.613858,0.556334,0.036752
1980-01-06T00:26:59.477149121Z,0.584185,2.347515,9.962572,-0.500541,0.617720,-0.076166
1980-01-06T00:26:59.497051621Z,0.500388,2.138022,10.005669,-0.433429,0.572313,-0.165648
1980-01-06T00:26:59.536777975Z,0.454898,1.578976,10.211570,-0.490154,0.370978,-0.243413
1980-01-06T00:26:59.556637194Z,0.308852,1.800440,10.316915,-0.498676,0.469115,-0.355265
1980-01-06T00:26:59.576509225Z,0.178368,1.856703,10.604218,-0.443815,0.435293,-0.410659
1980-01-06T00:26:59.596385059Z,0.039504,1.738190,10.436625,-0.380965,0.393748,-0.488423
1980-01-06T00:26:59.616305996Z,-0.068235,1.805228,10.383952,-0.344613,0.367915,-0.575775
1980-01-06T00:26:59.636136205Z,-0.276530,1.871069,10.292973,-0.289619,0.303067,-0.641821
1980-01-06T00:26:59.656033496Z,-0.584185,1.520318,10.201993,-0.258326,0.189484,-0.679106
1980-01-06T00:26:59.695745059Z,-0.726640,1.084573,10.149321,-0.330232,0.014381,-0.733434
1980-01-06T00:26:59.715638496Z,-0.767342,1.326388,10.225935,-0.380299,0.043409,-0.744087
1980-01-06T00:26:59.735496621Z,-0.743400,1.194707,10.307338,-0.474575,0.214384,-0.771783
1980-01-06T00:26:59.755386725Z,-0.741005,1.616086,10.829273,-0.287488,0.201867,-0.887897
1980-01-06T00:26:59.775195007Z,-1.029507,1.410185,10.915464,-0.324373,0.022504,-0.848482
1980-01-06T00:26:59.795117246Z,-0.969652,1.344344,10.752659,-0.156461,-0.107192,-0.917725
1980-01-06T00:26:59.854767507Z,-1.247379,1.132457,10.355222,-0.099070,-0.090281,-1.019990
1980-01-06T00:26:59.874631673Z,-1.339556,1.272518,10.613795,-0.121440,-0.125435,-1.001880
1980-01-06T00:26:59.894463027Z,-1.484405,1.434127,10.594642,-0.075367,-0.155928,-1.005076
1980-01-06T00:26:59.914329225Z,-1.440112,1.495179,10.388741,0.029827,-0.150868,-1.008272
1980-01-06T00:26:59.934224642Z,-1.260547,1.480814,10.240300,0.136087,-0.195609,-1.000815
1980-01-06T00:26:59.954077402Z,-1.248576,1.201889,9.812935,0.195875,-0.221974,-1.049817
1980-01-06T00:26:59.993814329Z,-1.473631,1.468843,9.726744,0.010386,-0.288420,-1.031708
1980-01-06T00:27:00.013690215Z,-1.477222,1.495179,10.042778,-0.024767,-0.308127,-0.986967
1980-01-06T00:27:00.033539694Z,-1.470040,1.643619,10.196007,-0.055660,-0.257394,-0.995489
1980-01-06T00:27:00.053410631Z,-1.347936,1.655591,10.564714,-0.041279,-0.265384,-1.010402
1980-01-06T00:27:00.073245111Z,-1.339556,1.493982,10.569503,-0.022504,-0.301736,-1.009337
1980-01-06T00:27:00.093129954Z,-1.434127,1.459266,10.708366,0.008389,-0.288953,-0.982706
1980-01-06T00:27:00.113022559Z,-1.517924,1.388637,10.885537,0.041279,-0.220909,-0.965661
1980-01-06T00:27:00.152761152Z,-1.836353,1.511938,10.890326,0.185223,-0.181361,-0.929442
1980-01-06T00:27:00.172614434Z,-2.158373,1.440112,10.837653,0.256462,-0.266982,-0.885767
1980-01-06T00:27:00.192497506Z,-2.203863,1.432930,10.746674,0.291083,-0.326503,-0.825047
1980-01-06T00:27:00.212391413Z,-2.243367,1.443704,10.478523,0.321310,-0.309060,-0.781371
1980-01-06T00:27:00.232228913Z,-2.246958,1.646014,10.167276,0.325039,-0.229964,-0.731303
1980-01-06T00:27:00.252087975Z,-2.057816,1.783680,9.942222,0.345279,-0.147938,-0.651409
1980-01-06T00:27:00.311694590Z,-2.025495,1.768118,9.391556,0.363654,-0.261389,-0.493750
1980-01-06T00:27:00.331578756Z,-2.007538,1.612495,9.257481,0.384826,-0.289885,-0.442617
1980-01-06T00:27:00.351443027Z,-2.043451,1.546654,9.132981,0.353801,-0.260856,-0.407463
1980-01-06T00:27:00.371309121Z,-1.945289,1.835156,8.998906,0.314519,-0.234225,-0.324373
1980-01-06T00:27:00.391187298Z,-1.910573,1.856703,8.682872,0.302402,-0.212786,-0.247674
1980-01-06T00:27:00.411087506Z,-1.742979,1.802834,8.639776,0.293880,-0.149270,-0.219977
1980-01-06T00:27:00.470664069Z,-1.514333,1.995567,8.160935,0.177100,-0.073237,-0.115581
1980-01-06T00:27:00.490565423Z,-1.375469,2.055422,8.060379,0.164450,-0.054462,-0.068710
1980-01-06T00:27:00.510423913Z,-1.126472,2.020706,8.018480,0.131294,-0.024901,-0.063383
1980-01-06T00:27:00.530298027Z,-1.146823,2.023100,7.989750,0.132758,-0.058856,-0.056992
1980-01-06T00:27:00.550149485Z,-1.189918,2.110489,8.133403,0.121440,-0.111054,0.000533
1980-01-06T00:27:00.570316933Z,-1.138443,2.057816,8.138191,0.151134,-0.097472,0.023968
1980-01-06T00:27:00.609758860Z,-0.803255,2.020706,8.564359,0.245011,-0.171374,0.004794
1980-01-06T00:27:00.629633600Z,-0.970849,1.989582,8.238748,0.243546,-0.253932,0.067644
1980-01-06T00:27:00.649721621Z,-1.120486,2.055422,8.277055,0.268846,-0.240217,0.131560
1980-01-06T00:27:00.669364225Z,-0.906205,1.651999,7.984962,0.206128,-0.064448,0.098537
1980-01-06T00:27:00.689247350Z,-0.752976,1.843535,8.085519,0.152466,0.120508,0.025034
1980-01-06T00:27:00.709103496Z,-0.438139,2.061408,8.004115,0.044208,0.150335,0.010120
1980-01-06T00:27:00.768714277Z,-0.565032,2.044648,8.430284,-0.418915,-0.163917,0.060187
1980-01-06T00:27:00.788572037Z,-0.790087,1.735796,8.913912,-0.512924,-0.206395,0.086819
1980-01-06T00:27:00.808469173Z,-0.472855,1.849521,9.517251,-0.601608,-0.226369,0.034621
1980-01-06T00:27:00.828352350Z,-0.335188,2.025495,9.469367,-0.662727,-0.323307,0.050600
1980-01-06T00:27:00.848211465Z,-0.600945,1.999158,9.545981,-0.616388,-0.332762,0.102798
1980-01-06T00:27:00.868101152Z,-0.636858,1.653196,9.881169,-0.535694,-0.198538,0.142213
1980-01-06T00:27:00.927679381Z,-0.697910,1.447295,10.762236,-0.618252,-0.055793,0.180562
1980-01-06T00:27:00.947518756Z,0.101754,1.233014,11.193192,-0.499209,0.041013,0.062318
1980-01-06T00:27:00.967399225Z,0.064643,1.162385,11.265018,-0.409993,0.038882,-0.061253
1980-01-06T00:27:00.987264381Z,-0.107739,1.074997,11.025599,-0.449941,0.011984,-0.092145
1980-01-06T00:27:01.007177558Z,-0.237026,0.932542,10.738294,-0.513590,0.025034,-0.119842
1980-01-06T00:27:01.066781152Z,-0.973243,0.776918,11.293749,-0.420513,-0.283626,0.064448
1980-01-06T00:27:01.086851308Z,-0.779313,0.673968,11.207558,-0.313986,-0.225170,0.101733
1980-01-06T00:27:01.106528079Z,-3.527856,-1.763330,10.407894,-2.017476,-1.270993,0.981640
1980-01-06T00:27:01.126381933Z,1.308431,-0.044293,10.915464,-0.702941,-0.011851,0.141147
1980-01-06T00:27:01.146234069Z,-0.071826,-0.173580,9.723152,-0.029561,-0.042078,0.002663
1980-01-06T00:27:01.166167089Z,0.453701,-0.371101,9.613019,-0.073370,-0.000266,-0.011185
1980-01-06T00:27:01.225757714Z,0.053870,-0.323217,9.814132,-0.025300,-0.001731,0.123038
1980-01-06T00:27:01.245608391Z,0.043096,-0.338780,9.737517,-0.035021,0.005859,0.050600
1980-01-06T00:27:01.265490787Z,-0.090980,-0.405817,9.723152,0.008522,-0.001465,0.062318
1980-01-06T00:27:01.285346360Z,0.235829,-0.217872,9.526828,0.101600,-0.008922,-0.018642
1980-01-06T00:27:01.305248496Z,-0.186748,0.094571,10.087071,-0.015446,-0.007457,-0.028229
1980-01-06T00:27:01.325093964Z,-0.166397,-0.632069,9.569923,-0.038882,-0.020373,-0.016512
1980-01-06T00:27:01.384671725Z,0.065841,-0.096965,9.804555,0.001598,-0.008922,-0.014381
1980-01-06T00:27:01.404690735Z,-0.011971,-0.141258,9.771036,-0.003862,-0.006791,-0.015446
1980-01-06T00:27:01.424436673Z,-0.017957,-0.183156,9.751883,0.000533,-0.009188,-0.014381
1980-01-06T00:27:01.444298443Z,-0.016759,-0.199916,9.723152,-0.001598,-0.007723,-0.014381
1980-01-06T00:27:01.464154902Z,-0.004788,-0.225055,9.732729,-0.000533,-0.009188,-0.014381
1980-01-06T00:27:01.484030006Z,-0.019154,-0.226252,9.766248,-0.005193,-0.009055,-0.014381
1980-01-06T00:27:01.543637818Z,-0.027533,-0.204704,9.751883,-0.002796,-0.007989,-0.014381
1980-01-06T00:27:01.563504693Z,-0.025139,-0.191536,9.727941,-0.002663,-0.007989,-0.014381
1980-01-06T00:27:01.583361933Z,-0.041899,-0.213084,9.747094,-0.003462,-0.007989,-0.014381
1980-01-06T00:27:01.603290110Z,-0.017957,-0.180762,9.747094,-0.003063,-0.009454,-0.015446
1980-01-06T00:27:01.623132923Z,-0.007183,-0.186748,9.737517,-0.004128,-0.008655,-0.014381
1980-01-06T00:27:01.682719016Z,-0.009577,-0.191536,9.727941,-0.003329,-0.008522,-0.015446
1980-01-06T00:27:01.702634068Z,-0.031125,-0.193930,9.737517,-0.003595,-0.007723,-0.014381
1980-01-06T00:27:01.722504902Z,-0.021548,-0.213084,9.742306,-0.002530,-0.008522,-0.015446
1980-01-06T00:27:01.742348391Z,0.000000,-0.205901,9.737517,-0.002929,-0.008655,-0.014381
1980-01-06T00:27:01.762285735Z,-0.017957,-0.197522,9.737517,-0.001864,-0.009587,-0.015446
1980-01-06T00:27:01.782076829Z,-0.013168,-0.190339,9.737517,-0.001598,-0.008389,-0.015446
1980-01-06T00:27:01.802191412Z,-0.026336,-0.192733,9.747094,-0.003063,-0.009055,-0.015446
1980-01-06T00:27:01.841717558Z,0.046687,-0.178368,9.866804,-0.003063,-0.008922,-0.014381
1980-01-06T00:27:01.861560631Z,-0.008380,-0.193930,9.742306,-0.001065,-0.006525,-0.014381
1980-01-06T00:27:01.881442037Z,-0.020351,-0.193930,9.742306,-0.001997,-0.009454,-0.014381
1980-01-06T00:27:01.901304172Z,-0.021548,-0.239420,9.603442,-0.000533,-0.007723,-0.014381
