timestamp,accel_x,accel_y,accel_z,gyro_x,gyro_y,gyro_z
1980-01-06T00:25:21.338330461Z,0.005986,-0.152032,9.769240,-0.000799,-0.007590,-0.014781
1980-01-06T00:25:21.358216919Z,-0.009577,-0.186748,9.639954,0.002530,-0.007590,-0.014781
1980-01-06T00:25:21.378212596Z,-0.025139,-0.178368,9.697414,0.001731,-0.008922,-0.014781
1980-01-06T00:25:21.398215877Z,-0.017957,-0.171185,9.716568,0.001065,-0.007723,-0.014781
1980-01-06T00:25:21.418081398Z,0.002394,-0.214281,9.673472,-0.002397,-0.008123,-0.015846
1980-01-06T00:25:21.437687909Z,-0.002394,-0.207098,9.678261,-0.002397,-0.008389,-0.015846
1980-01-06T00:25:21.457586971Z,0.011971,-0.193930,9.706991,-0.003063,-0.009587,-0.014781
1980-01-06T00:25:21.477449211Z,0.002394,-0.207098,9.702203,-0.002796,-0.008123,-0.014781
1980-01-06T00:25:21.497326086Z,-0.027533,-0.185551,9.683049,-0.001731,-0.009188,-0.014781
1980-01-06T00:25:21.517210357Z,-0.020351,-0.197522,9.713875,-0.001731,-0.007989,-0.013848
1980-01-06T00:25:21.537059784Z,0.011971,-0.180762,9.718663,-0.002264,-0.007989,-0.013848
1980-01-06T00:25:21.576818898Z,0.005986,-0.175974,9.709086,-0.002397,-0.008256,-0.013848
1980-01-06T00:25:21.596670200Z,-0.023942,-0.190339,9.713875,-0.002131,-0.008522,-0.013848
1980-01-06T00:25:21.616537075Z,-0.016759,-0.196325,9.718663,-0.003196,-0.008256,-0.013848
1980-01-06T00:25:21.636425409Z,-0.023942,-0.198719,9.718663,-0.004128,-0.008655,-0.013848
1980-01-06T00:25:21.656275825Z,0.009577,-0.195127,9.704298,-0.004128,-0.009188,-0.014914
1980-01-06T00:25:21.676147909Z,0.000000,-0.201113,9.699510,-0.001731,-0.008123,-0.013848
1980-01-06T00:25:21.696041190Z,0.015562,-0.195127,9.694721,-0.002796,-0.008123,-0.013848
1980-01-06T00:25:21.755654940Z,-0.007183,-0.179565,9.699510,-0.001465,-0.009321,-0.013848
1980-01-06T00:25:21.775470356Z,0.000000,-0.195127,9.689933,-0.001465,-0.007590,-0.013848
1980-01-06T00:25:21.795345721Z,-0.008380,-0.201113,9.704298,-0.002264,-0.009454,-0.013848
1980-01-06T00:25:21.815269263Z,-0.002394,-0.199916,9.704298,-0.003063,-0.009454,-0.013848
1980-01-06T00:25:21.835061815Z,-0.019154,-0.187945,9.718663,-0.002663,-0.009321,-0.013848
1980-01-06T00:25:21.894721867Z,0.016759,-0.204704,9.713875,-0.001198,-0.007590,-0.013848
1980-01-06T00:25:21.914821034Z,0.043096,-0.189142,9.704298,-0.002663,-0.008522,-0.014914
1980-01-06T00:25:21.934651502Z,0.000000,-0.178368,9.713875,-0.003063,-0.008655,-0.012783
1980-01-06T00:25:21.954580200Z,0.106542,-0.152032,9.627684,-0.009055,0.001065,-0.014914
1980-01-06T00:25:21.974391346Z,-0.082600,-0.257377,9.742605,-0.033156,0.000266,-0.010653
1980-01-06T00:25:21.994050825Z,0.025139,-0.164003,9.651626,-0.096939,0.026765,-0.020240
1980-01-06T00:25:22.053663690Z,0.019154,-0.144849,9.677064,-0.016112,-0.009055,-0.009587
1980-01-06T00:25:22.073551867Z,-0.118513,-0.089783,9.729736,-0.023968,-0.017976,-0.007457
1980-01-06T00:25:22.093438273Z,0.090980,-0.134075,9.744102,-0.014647,-0.003862,-0.012783
1980-01-06T00:25:22.113322179Z,0.081403,0.081403,9.791986,-0.027564,0.005726,-0.014914
1980-01-06T00:25:22.133162908Z,0.003591,0.112527,9.839869,-0.054728,0.000666,-0.022371
1980-01-06T00:25:22.153050721Z,-0.104148,-0.123301,9.825504,-0.065780,-0.006392,-0.018109
1980-01-06T00:25:22.173004731Z,-0.002394,-0.196325,9.724948,-0.048603,0.001332,-0.019175
1980-01-06T00:25:22.192831450Z,-0.041899,-0.330400,9.643545,-0.028229,-0.008522,-0.019175
1980-01-06T00:25:22.212627388Z,-0.005986,-0.164003,9.768044,0.019175,-0.015180,-0.008522
1980-01-06T00:25:22.232537752Z,-0.080206,-0.237026,9.729736,0.015713,-0.016778,-0.009587
1980-01-06T00:25:22.252390825Z,0.038307,-0.198719,9.691429,-0.002397,-0.012916,-0.012783
1980-01-06T00:25:22.272232596Z,0.005986,-0.240617,9.715371,0.000266,-0.007191,-0.013848
1980-01-06T00:25:22.292129940Z,-0.027533,-0.299275,9.681852,0.028496,-0.015180,-0.013848
1980-01-06T00:25:22.351740148Z,-0.055067,-0.199916,9.710583,-0.002264,-0.018908,-0.013848
1980-01-06T00:25:22.371591710Z,0.098162,-0.325611,9.748890,0.031425,-0.014514,-0.018109
1980-01-06T00:25:22.391474002Z,-0.016759,-0.010774,9.768044,0.033556,-0.001465,-0.013848
1980-01-06T00:25:22.411342908Z,-0.032322,-0.215478,9.710583,0.002663,-0.009854,-0.008522
1980-01-06T00:25:22.431201502Z,-0.002394,-0.178368,9.729736,0.006791,-0.009987,-0.006392
1980-01-06T00:25:22.451083273Z,-0.161609,-0.246603,9.710583,0.028096,-0.014115,0.012783
1980-01-06T00:25:22.490808377Z,-0.185551,-0.149638,9.729736,0.018243,-0.002796,0.045806
1980-01-06T00:25:22.510886971Z,-0.676362,-0.405817,9.691429,0.021305,-0.005326,0.008522
1980-01-06T00:25:22.530563533Z,-0.961272,-0.232238,9.744102,-0.024368,-0.009454,-0.020240
1980-01-06T00:25:22.550450356Z,-0.885855,0.164003,9.839869,-0.026365,0.006924,0.064981
1980-01-06T00:25:22.570305825Z,-1.049857,0.155623,9.533412,-0.016778,0.012384,0.148072
1980-01-06T00:25:22.590158690Z,-1.122881,0.168791,9.432856,-0.037950,-0.025699,0.234358
1980-01-06T00:25:22.610049471Z,-0.883460,0.082600,9.859023,0.015713,-0.015713,0.306796
1980-01-06T00:25:22.669621398Z,-1.175553,0.050278,9.589376,-0.034488,0.032491,0.387223
1980-01-06T00:25:22.689511867Z,-1.015141,0.064643,9.560646,-0.028762,0.179231,0.417051
1980-01-06T00:25:22.709597439Z,-0.805649,0.063446,9.852738,-0.028895,0.227833,0.433030
1980-01-06T00:25:22.729241189Z,-0.657208,0.195127,10.183139,-0.081892,0.083889,0.454335
1980-01-06T00:25:22.749135356Z,-0.718261,0.164003,10.149619,-0.186288,-0.081093,0.565122
1980-01-06T00:25:22.769053117Z,-0.581791,0.132878,10.163984,-0.176434,0.056059,0.580036
1980-01-06T00:25:22.808727960Z,-0.537498,-0.075417,10.082582,-0.099735,0.273240,0.561926
1980-01-06T00:25:22.828625148Z,-0.460884,0.158017,10.211869,-0.144876,0.212653,0.589623
1980-01-06T00:25:22.848475460Z,-0.644040,0.074220,10.197504,-0.107858,0.184024,0.586428
1980-01-06T00:25:22.868368116Z,-0.705092,-0.118513,10.144831,-0.118777,0.174037,0.624777
1980-01-06T00:25:22.888238169Z,-0.669179,-0.349553,10.355521,-0.145009,0.209591,0.686562
1980-01-06T00:25:22.908090460Z,-0.641646,-0.462081,10.575788,-0.165782,0.354866,0.682301
1980-01-06T00:25:22.967691710Z,-0.469264,-0.456095,11.121665,-0.126234,0.281629,0.624777
1980-01-06T00:25:22.987550148Z,-0.596156,-0.318429,10.853515,0.043942,0.389354,0.545948
1980-01-06T00:25:23.007470929Z,-0.658405,-0.349553,10.681132,0.143544,0.425040,0.554470
1980-01-06T00:25:23.027294679Z,-0.867898,-0.447716,10.609306,0.132892,0.352735,0.564057
1980-01-06T00:25:23.047423169Z,-1.079785,-0.183156,10.647614,0.085621,0.178964,0.613059
1980-01-06T00:25:23.067099002Z,-1.132457,0.021548,10.800842,0.108657,0.016512,0.669518
1980-01-06T00:25:23.106813950Z,-1.059434,-0.128090,10.513538,0.239551,-0.048869,0.639691
1980-01-06T00:25:23.126626814Z,-0.887052,-0.165200,10.336368,0.196408,-0.022637,0.633299
1980-01-06T00:25:23.146528898Z,-0.846350,0.023942,10.451289,0.212121,-0.075101,0.683367
1980-01-06T00:25:23.166425877Z,-0.871489,-0.027533,10.412982,0.206262,-0.140082,0.733434
1980-01-06T00:25:23.186276814Z,-0.849942,-0.004788,10.513538,0.218379,-0.182160,0.755804
1980-01-06T00:25:23.206124523Z,-0.661997,-0.002394,10.537480,0.309459,-0.202533,0.799480
1980-01-06T00:25:23.265708533Z,-0.240617,0.003591,10.623672,0.431165,-0.109855,0.674844
1980-01-06T00:25:23.285634418Z,-0.056264,0.119710,10.216658,0.464455,-0.211987,0.594950
1980-01-06T00:25:23.305536710Z,-0.051475,0.225055,10.446501,0.507199,-0.392949,0.536360
1980-01-06T00:25:23.325608689Z,-0.062249,0.186748,10.451289,0.418116,-0.397210,0.495880
1980-01-06T00:25:23.345238064Z,0.010774,0.120907,10.341156,0.444215,-0.282961,0.472444
1980-01-06T00:25:23.365103377Z,-0.088585,0.184354,10.427347,0.535828,-0.191614,0.444748
1980-01-06T00:25:23.385030148Z,-0.052672,0.118513,10.216658,0.544350,-0.216115,0.424508
1980-01-06T00:25:23.424695773Z,0.150835,0.378284,9.996390,0.440886,-0.357929,0.316916
1980-01-06T00:25:23.444794262Z,0.114922,0.554258,10.044274,0.410659,-0.432896,0.313720
1980-01-06T00:25:23.464542127Z,0.175974,0.541090,9.881469,0.451006,-0.388954,0.308394
1980-01-06T00:25:23.484326762Z,0.342371,0.544681,9.977237,0.502538,-0.304532,0.293480
1980-01-06T00:25:23.504198793Z,0.621295,0.790087,10.144831,0.575242,-0.319845,0.257261
1980-01-06T00:25:23.524077022Z,0.721852,0.872687,9.886257,0.612926,-0.468583,0.230630
1980-01-06T00:25:23.563813012Z,0.486023,1.042675,9.527127,0.511060,-0.530102,0.258326
1980-01-06T00:25:23.583670668Z,0.693121,1.270124,9.876680,0.603339,-0.258992,0.180562
1980-01-06T00:25:23.603533377Z,0.762553,1.274912,9.761759,0.580835,-0.096406,0.176301
1980-01-06T00:25:23.623429522Z,1.069011,1.133654,9.766547,0.543018,-0.116780,0.117712
1980-01-06T00:25:23.643283116Z,1.215057,1.116895,9.632472,0.421578,-0.408395,0.104928
1980-01-06T00:25:23.663139783Z,1.185130,1.194707,9.555858,0.280830,-0.601874,0.047404
1980-01-06T00:25:23.683050095Z,1.156399,1.490391,9.656414,0.271376,-0.651808,-0.013316
1980-01-06T00:25:23.722779210Z,1.346738,1.479617,9.287707,0.418515,-0.408395,-0.058057
1980-01-06T00:25:23.742663741Z,1.489193,1.535880,9.263765,0.487358,-0.243280,-0.131560
1980-01-06T00:25:23.762517595Z,1.648408,1.504756,9.105747,0.478570,-0.274439,-0.196541
1980-01-06T00:25:23.782376033Z,1.631648,1.487996,9.019556,0.431165,-0.443416,-0.280697
1980-01-06T00:25:23.802236658Z,1.595735,1.577779,8.880692,0.394946,-0.632633,-0.377636
1980-01-06T00:25:23.822131502Z,1.519121,1.760935,8.631696,0.379101,-0.744752,-0.456465
1980-01-06T00:25:23.842034627Z,1.422156,1.918953,8.358757,0.353934,-0.775379,-0.495880
1980-01-06T00:25:23.881751189Z,1.541866,2.414552,7.836821,0.421445,-0.569783,-0.560861
1980-01-06T00:25:23.901601502Z,1.380257,2.369063,7.650073,0.316916,-0.580968,-0.535295
1980-01-06T00:25:23.921462908Z,1.575385,2.408567,8.085817,0.288420,-0.600942,-0.535295
1980-01-06T00:25:23.941324106Z,1.738190,2.357092,8.066664,0.184024,-0.581900,-0.526773
1980-01-06T00:25:23.961239939Z,1.906982,2.572570,8.377911,0.139283,-0.470846,-0.543817
1980-01-06T00:25:23.981071501Z,1.946486,2.811990,8.535928,0.092412,-0.344213,-0.576840
1980-01-06T00:25:24.040682751Z,2.187103,2.815581,7.985261,0.107725,-0.313321,-0.701476
1980-01-06T00:25:24.060571918Z,2.073379,2.887407,8.229470,0.058989,-0.367782,-0.763261
1980-01-06T00:25:24.080436918Z,1.821988,3.177106,8.368334,0.115048,-0.429834,-0.814394
1980-01-06T00:25:24.100319626Z,1.572991,3.046622,8.253412,0.158458,-0.467384,-0.818655
1980-01-06T00:25:24.120146241Z,1.499967,2.941277,8.028357,0.151667,-0.374307,-0.857005
1980-01-06T00:25:24.140036814Z,1.448492,3.204639,7.956531,0.113317,-0.358195,-0.839960
1980-01-06T00:25:24.179756345Z,1.260547,3.479972,7.889493,0.056459,-0.229165,-0.795219
1980-01-06T00:25:24.199629470Z,1.031901,3.610456,7.851186,0.098271,-0.159923,-0.776044
1980-01-06T00:25:24.219556866Z,0.978031,3.772065,7.851186,0.146873,-0.139150,-0.741956
1980-01-06T00:25:24.239399835Z,0.952892,3.807978,7.693169,0.153664,-0.118910,-0.725977
1980-01-06T00:25:24.259289574Z,1.031901,3.936068,7.611766,0.109323,-0.145275,-0.707868
1980-01-06T00:25:24.279116762Z,1.024718,3.989937,7.477691,0.005593,-0.195875,-0.696150
1980-01-06T00:25:24.299020147Z,1.013944,4.234146,7.492056,-0.048603,-0.173771,-0.685497
1980-01-06T00:25:24.358611866Z,1.065420,4.274847,7.592612,0.046339,0.219178,-0.577905
1980-01-06T00:25:24.378479626Z,0.711078,4.449624,7.851186,0.042744,0.245144,-0.556600
1980-01-06T00:25:24.398350928Z,0.554258,4.381389,7.932589,-0.003329,0.148072,-0.552339
1980-01-06T00:25:24.418230668Z,0.379481,4.163517,8.061875,-0.074169,-0.005726,-0.509729
1980-01-06T00:25:24.438098480Z,0.374693,4.321534,8.229470,-0.114516,-0.089882,-0.446878
1980-01-06T00:25:24.497720928Z,0.913388,4.193444,7.956531,-0.074702,0.053263,-0.422377
1980-01-06T00:25:24.517570355Z,0.958878,4.436456,8.057087,-0.138884,0.041812,-0.439421
1980-01-06T00:25:24.537467074Z,0.866701,4.510676,8.076241,-0.163651,-0.033423,-0.433030
1980-01-06T00:25:24.557351501Z,0.745794,4.390966,8.071452,-0.207460,-0.054861,-0.429834
1980-01-06T00:25:24.577164574Z,0.666785,4.367024,8.248624,-0.231029,-0.027830,-0.409594
1980-01-06T00:25:24.597055460Z,0.626084,4.367024,8.205527,-0.205862,0.037950,-0.410659
1980-01-06T00:25:24.656679626Z,0.582988,4.315548,8.756194,-0.148072,0.121174,-0.392550
1980-01-06T00:25:24.676519574Z,0.407014,4.094085,8.514679,-0.113983,0.074835,-0.384028
1980-01-06T00:25:24.696410512Z,0.270545,4.070143,8.366239,-0.149004,0.083889,-0.376571
1980-01-06T00:25:24.716247491Z,0.179565,4.217386,8.457218,-0.162852,0.111187,-0.363788
1980-01-06T00:25:24.736143689Z,0.114922,4.068946,8.572140,-0.200536,0.119043,-0.304133
1980-01-06T00:25:24.795760043Z,0.144849,4.040215,8.892963,-0.161920,0.150202,-0.275371
1980-01-06T00:25:24.815616762Z,0.003591,3.936068,8.778041,-0.161521,0.081093,-0.280697
1980-01-06T00:25:24.835524366Z,-0.189142,3.842694,8.653543,-0.171907,0.039947,-0.262587
1980-01-06T00:25:24.855344418Z,-0.149638,3.788824,8.596082,-0.202800,0.039282,-0.224238
1980-01-06T00:25:24.875225303Z,-0.021548,3.863045,8.792406,-0.189750,0.089748,-0.199737
1980-01-06T00:25:24.895087959Z,0.046687,3.796007,8.830713,-0.158591,0.143278,-0.205063
1980-01-06T00:25:24.954718376Z,0.005986,3.592500,8.916905,-0.081359,0.060587,-0.242347
1980-01-06T00:25:24.974596553Z,-0.073023,3.725378,8.615235,-0.065247,0.072704,-0.259392
1980-01-06T00:25:24.994464626Z,-0.146046,3.635595,8.500314,-0.128231,0.087085,-0.229564
1980-01-06T00:25:25.014376397Z,-0.160412,3.641581,8.682273,-0.188285,0.150202,-0.222107
1980-01-06T00:25:25.034246761Z,-0.161609,3.669114,8.749310,-0.200802,0.170043,-0.231695
1980-01-06T00:25:25.054073064Z,-0.225055,3.709816,8.835502,-0.211055,0.102798,-0.229564
1980-01-06T00:25:25.113672230Z,-0.345962,3.567361,8.739734,-0.250071,-0.100401,-0.211455
1980-01-06T00:25:25.133588949Z,-0.393846,3.337517,8.754099,-0.305065,-0.104928,-0.186954
1980-01-06T00:25:25.153615928Z,-0.284910,3.179500,9.084499,-0.384693,-0.025966,-0.132625
1980-01-06T00:25:25.173294418Z,-0.138864,3.278859,9.371803,-0.376038,0.060454,-0.127299
1980-01-06T00:25:25.193168168Z,-0.193930,3.070564,9.419687,-0.281762,0.032890,-0.143278
1980-01-06T00:25:25.213019053Z,-0.333991,3.003526,9.012673,-0.264984,0.042078,-0.203998
1980-01-06T00:25:25.252770668Z,-0.202310,2.936488,9.376592,-0.453669,-0.028629,-0.130495
1980-01-06T00:25:25.272623636Z,-0.052672,3.023877,9.802759,-0.407596,0.098271,-0.146474
1980-01-06T00:25:25.292524574Z,-0.131681,3.104083,9.769240,-0.303600,0.151667,-0.164583
1980-01-06T00:25:25.312362751Z,-0.154426,3.125630,9.750087,-0.216515,0.111986,-0.164583
1980-01-06T00:25:25.332243688Z,-0.147243,2.886210,9.702203,-0.181894,0.088816,-0.199737
1980-01-06T00:25:25.352093636Z,-0.278924,2.823961,9.525032,-0.203998,0.028363,-0.213585
1980-01-06T00:25:25.431581813Z,-0.678756,2.591723,9.472360,-0.179896,0.143944,-0.137952
1980-01-06T00:25:25.451444938Z,-0.778116,2.601300,9.414899,-0.165648,0.153931,-0.132625
1980-01-06T00:25:25.471351553Z,-0.774524,2.521094,9.343073,-0.195476,0.096540,-0.124103
1980-01-06T00:25:25.491180824Z,-0.659603,2.536657,9.199421,-0.232361,0.051266,-0.123038
1980-01-06T00:25:25.511102022Z,-0.684742,2.608483,9.204209,-0.230630,0.029961,-0.115581
1980-01-06T00:25:25.550993115Z,-0.727837,2.480393,9.161114,-0.163118,0.131826,-0.103863
1980-01-06T00:25:25.570889886Z,-0.641646,2.473210,9.137172,-0.210523,0.087618,-0.091080
1980-01-06T00:25:25.590742647Z,-0.754174,2.425326,9.146749,-0.225570,0.022371,-0.108124
1980-01-06T00:25:25.610606865Z,-0.903811,2.379837,9.266459,-0.254598,-0.085754,-0.096406
1980-01-06T00:25:25.630580355Z,-0.945710,2.197877,9.022250,-0.273906,-0.083490,-0.086819
1980-01-06T00:25:25.650156084Z,-0.986411,2.256535,9.357438,-0.320112,-0.023303,-0.034621
1980-01-06T00:25:25.670036293Z,-1.090559,2.333150,9.544186,-0.222640,0.073370,-0.026099
1980-01-06T00:25:25.709758428Z,-0.919373,1.972822,9.381380,-0.195875,0.134356,0.023968
1980-01-06T00:25:25.729828792Z,-0.916979,2.075773,9.587281,-0.225969,0.088683,0.019707
1980-01-06T00:25:25.749501397Z,-0.908600,2.066196,9.716568,-0.227567,0.032491,0.032491
1980-01-06T00:25:25.769590042Z,-0.936133,1.927332,9.697414,-0.188552,0.017311,0.032491
1980-01-06T00:25:25.789274001Z,-0.980426,1.934515,9.807548,-0.175635,0.044741,0.045274
1980-01-06T00:25:25.809111501Z,-0.944513,1.850718,9.654319,-0.121307,0.105062,0.066579
1980-01-06T00:25:25.849029470Z,-1.042675,1.854309,9.448418,-0.204264,0.007457,0.098537
1980-01-06T00:25:25.868816709Z,-0.968455,1.714248,9.544186,-0.287488,0.008922,0.140082
1980-01-06T00:25:25.888598532Z,-0.810437,1.770512,9.754875,-0.275903,0.045407,0.139017
1980-01-06T00:25:25.908481084Z,-0.857124,1.681927,9.611223,-0.266982,0.032624,0.146474
1980-01-06T00:25:25.928352438Z,-0.810437,1.613692,9.735722,-0.316250,0.047138,0.175236
1980-01-06T00:25:25.948246761Z,-0.459687,1.584962,9.984719,-0.328900,0.089748,0.165648
1980-01-06T00:25:25.968065876Z,-0.556652,1.583764,9.912893,-0.304799,0.050467,0.131560
1980-01-06T00:25:26.027683063Z,-0.957681,1.412579,9.869798,-0.226901,0.056459,0.168844
1980-01-06T00:25:26.047611709Z,-1.076194,1.279701,9.774029,-0.205196,0.071639,0.148604
1980-01-06T00:25:26.067440876Z,-0.995988,1.369483,9.807548,-0.235024,0.012517,0.161387
1980-01-06T00:25:26.087501240Z,-0.986411,1.428141,9.845855,-0.219844,-0.010253,0.150735
1980-01-06T00:25:26.107166501Z,-1.102530,1.410185,9.683049,-0.202666,-0.041545,0.174171
1980-01-06T00:25:26.127062230Z,-1.290475,1.329979,9.414899,-0.184823,-0.037417,0.195476
1980-01-06T00:25:26.166796605Z,-1.151611,1.109712,9.711780,-0.285624,0.080960,0.294545
1980-01-06T00:25:26.186645251Z,-0.945710,1.171962,9.946412,-0.266849,0.127166,0.306263
1980-01-06T00:25:26.206493115Z,-0.949301,1.150414,9.821913,-0.253799,0.122372,0.317981
1980-01-06T00:25:26.226384678Z,-0.855927,1.035492,9.955989,-0.213718,0.128231,0.316916
1980-01-06T00:25:26.246474365Z,-0.718261,0.902614,10.140042,-0.193745,0.115581,0.292415
1980-01-06T00:25:26.266132386Z,-1.076194,0.863110,10.015544,-0.161654,0.119576,0.273240
1980-01-06T00:25:26.286030511Z,-1.357512,0.873884,9.900622,-0.146474,0.170043,0.294545
1980-01-06T00:25:26.325767542Z,-0.909797,0.882263,10.168773,-0.194544,0.072704,0.372310
1980-01-06T00:25:26.345678480Z,-0.861913,0.788889,9.871892,-0.210390,-0.005193,0.370179
1980-01-06T00:25:26.365500198Z,-0.915782,0.830788,9.771336,-0.236888,-0.051133,0.400006
1980-01-06T00:25:26.385361292Z,-0.781707,0.775721,9.958083,-0.239684,-0.035553,0.417051
1980-01-06T00:25:26.405214365Z,-0.700304,0.590171,9.996390,-0.271110,-0.006258,0.426638
1980-01-06T00:25:26.425282959Z,-0.766145,0.657208,10.130466,-0.270843,0.039148,0.439421
1980-01-06T00:25:26.484699886Z,-0.883460,0.550666,10.187927,-0.149270,-0.000399,0.409594
1980-01-06T00:25:26.504551084Z,-0.955287,0.591368,10.307637,-0.162053,-0.007324,0.414920
1980-01-06T00:25:26.524429105Z,-1.052252,0.604536,10.336368,-0.130628,-0.001465,0.418116
1980-01-06T00:25:26.544332386Z,-1.126472,0.591368,10.274118,-0.085088,0.062318,0.426638
1980-01-06T00:25:26.564182178Z,-1.096544,0.551863,10.513538,-0.060587,0.097072,0.443682
1980-01-06T00:25:26.584050719Z,-1.061828,0.524330,10.432136,-0.032357,0.069375,0.434095
1980-01-06T00:25:26.643861136Z,-1.108515,0.732626,10.341156,0.033289,0.078430,0.480966
1980-01-06T00:25:26.663515303Z,-1.017536,0.678756,10.240600,0.044874,0.086153,0.484162
1980-01-06T00:25:26.683426761Z,-1.010353,0.676362,10.379463,0.040613,0.046339,0.489489
1980-01-06T00:25:26.703454209Z,-1.041478,0.693121,10.484808,0.057791,-0.003196,0.502272
1980-01-06T00:25:26.723202542Z,-1.060631,0.687136,10.441712,0.106260,0.002264,0.510794
1980-01-06T00:25:26.743007386Z,-1.029507,0.666785,10.298060,0.103730,0.003462,0.540621
1980-01-06T00:25:26.782742490Z,-0.926556,0.820014,10.542269,0.138884,0.113584,0.557665
1980-01-06T00:25:26.802624105Z,-0.778116,0.790087,10.590153,0.123571,0.067378,0.580036
1980-01-06T00:25:26.822495875Z,-0.758962,0.663194,10.489596,0.085887,-0.010253,0.592819
1980-01-06T00:25:26.842348427Z,-0.732626,0.772130,10.551846,0.038349,-0.035819,0.615190
1980-01-06T00:25:26.862227386Z,-0.750582,0.762553,10.666767,0.080561,-0.024634,0.614124
1980-01-06T00:25:26.882147594Z,-0.705092,0.640449,10.623672,0.048070,0.032357,0.611994
1980-01-06T00:25:26.941766813Z,-0.792481,0.660800,10.638037,0.128497,0.180828,0.669518
1980-01-06T00:25:26.961647907Z,-0.622492,1.082179,11.528680,0.310924,0.160855,0.619451
1980-01-06T00:25:26.981439677Z,-0.628478,0.778116,10.724228,0.240616,0.067644,0.622647
1980-01-06T00:25:27.001341969Z,-0.503979,0.520739,10.149619,0.249671,-0.082025,0.557665
1980-01-06T00:25:27.021190927Z,-0.464475,0.628478,10.106524,0.207460,-0.170575,0.521446
1980-01-06T00:25:27.041066917Z,-0.618901,0.788889,10.101735,0.228632,-0.125967,0.531034
1980-01-06T00:25:27.100653688Z,-0.317232,0.766145,10.211869,0.475507,0.249671,0.473510
1980-01-06T00:25:27.120548896Z,-0.191536,1.005565,10.144831,0.399341,-0.024634,0.422377
1980-01-06T00:25:27.140341709Z,-0.330400,1.167173,10.178350,0.314785,-0.225969,0.372310
1980-01-06T00:25:27.160282959Z,-0.373495,1.423353,10.251074,0.317715,-0.271642,0.333960
1980-01-06T00:25:27.180340042Z,-0.447716,1.561020,10.179248,0.335558,-0.240616,0.342482
1980-01-06T00:25:27.200039469Z,-0.489614,1.470040,10.284593,0.368847,-0.189883,0.343547
1980-01-06T00:25:27.259647959Z,-0.111330,1.329979,10.265439,0.437158,-0.518916,0.259392
1980-01-06T00:25:27.279511656Z,0.026336,1.277307,10.265439,0.382296,-0.702142,0.253000
1980-01-06T00:25:27.299367281Z,0.082600,1.576582,10.126575,0.343281,-0.605070,0.201867
1980-01-06T00:25:27.319262490Z,0.317232,1.817199,9.944616,0.376304,-0.576308,0.195476
1980-01-06T00:25:27.339149261Z,0.417788,1.816002,9.762657,0.417184,-0.548344,0.164583
1980-01-06T00:25:27.359007959Z,0.520739,1.847127,9.566332,0.439821,-0.522379,0.124103
1980-01-06T00:25:27.398721188Z,0.642843,1.771709,9.331700,0.400406,-0.548344,0.066579
1980-01-06T00:25:27.418616552Z,0.624887,1.838747,9.216779,0.397476,-0.512392,0.032491
1980-01-06T00:25:27.438444261Z,0.706290,1.762132,8.862437,0.370312,-0.468050,-0.013316
1980-01-06T00:25:27.458344000Z,1.024718,1.991976,8.934263,0.296276,-0.529702,-0.030360
1980-01-06T00:25:27.478183063Z,1.171962,2.069787,8.852860,0.278433,-0.553005,-0.093211
1980-01-06T00:25:27.498084938Z,1.212663,2.230199,8.828918,0.306796,-0.598545,-0.133691
1980-01-06T00:25:27.557694208Z,1.394622,2.226608,8.517672,0.286290,-0.548211,-0.240217
1980-01-06T00:25:27.577568479Z,1.303643,2.331953,8.431480,0.224904,-0.478170,-0.271110
1980-01-06T00:25:27.597412125Z,1.339556,2.450465,8.383596,0.152200,-0.428769,-0.273240
1980-01-06T00:25:27.617300511Z,1.470040,2.797625,8.742726,0.174703,-0.404667,-0.263653
1980-01-06T00:25:27.637152438Z,1.578976,2.863465,8.939052,0.247541,-0.331164,-0.293480
1980-01-06T00:25:27.657082906Z,1.692701,2.821567,8.335712,0.296143,-0.292548,-0.329699
1980-01-06T00:25:27.696805302Z,1.851915,2.912546,7.986159,0.207726,-0.248340,-0.388289
1980-01-06T00:25:27.716642542Z,1.814805,2.932897,7.823353,0.127033,-0.266982,-0.431964
1980-01-06T00:25:27.736539208Z,1.765724,2.868254,7.856872,0.010653,-0.288686,-0.469249
1980-01-06T00:25:27.756386031Z,1.659182,3.086126,7.962217,-0.055527,-0.264585,-0.499076
1980-01-06T00:25:27.776265042Z,1.673547,3.105280,8.024467,-0.030493,-0.232494,-0.515055
1980-01-06T00:25:27.796122802Z,1.611298,2.966416,7.970896,-0.026765,-0.162586,-0.536360
1980-01-06T00:25:27.816027073Z,1.632846,2.941277,8.148067,-0.015579,-0.154197,-0.558731
1980-01-06T00:25:27.855765667Z,1.340753,2.955642,8.353969,0.012650,-0.245943,-0.590689
1980-01-06T00:25:27.875678323Z,1.159991,3.031059,8.234259,0.011185,-0.220376,-0.605602
1980-01-06T00:25:27.895460771Z,1.092953,3.187880,8.286931,0.004394,-0.200536,-0.600276
1980-01-06T00:25:27.915337177Z,1.069011,3.181894,8.411429,0.005726,-0.206528,-0.581101
1980-01-06T00:25:27.935281031Z,1.076194,3.131616,8.564658,0.023569,-0.173638,-0.574710
1980-01-06T00:25:27.955102490Z,1.156399,3.199851,8.569447,0.056193,-0.143278,-0.577905
1980-01-06T00:25:28.014711240Z,0.861913,3.266888,8.339603,0.100135,-0.089748,-0.543817
1980-01-06T00:25:28.034587594Z,0.876278,3.524265,8.267777,0.101067,-0.065514,-0.522512
1980-01-06T00:25:28.054454833Z,0.938527,3.575740,8.167220,0.093344,-0.044075,-0.491619
1980-01-06T00:25:28.074332385Z,1.065420,3.658340,8.239047,0.103996,0.008256,-0.480966
1980-01-06T00:25:28.094186292Z,1.106121,3.677494,8.138490,0.104263,0.022504,-0.464988
1980-01-06T00:25:28.114071135Z,1.118092,3.621230,8.018780,0.104928,0.039681,-0.476705
1980-01-06T00:25:28.153999364Z,1.035492,3.696647,7.812879,0.053529,0.031292,-0.490554
1980-01-06T00:25:28.173649312Z,0.985214,3.591303,7.769783,0.017710,0.015846,-0.475640
1980-01-06T00:25:28.193528635Z,0.966060,3.502717,7.784148,-0.006658,0.060187,-0.459661
1980-01-06T00:25:28.213399573Z,1.104924,3.405752,7.616554,0.037151,0.242880,-0.458596
1980-01-06T00:25:28.233294104Z,1.193510,3.551798,7.434595,0.128897,0.485893,-0.506533
1980-01-06T00:25:28.253144469Z,1.052252,3.770868,7.448960,0.142080,0.551540,-0.548078
1980-01-06T00:25:28.273011187Z,0.752976,3.675100,7.602189,0.036752,0.305065,-0.621581
1980-01-06T00:25:28.312754833Z,-0.286107,3.673903,7.745841,-0.235157,-0.131960,-0.593884
1980-01-06T00:25:28.332826656Z,-0.333991,3.657143,7.918223,-0.266849,0.012517,-0.518251
1980-01-06T00:25:28.352644781Z,-0.045490,3.930082,8.191162,-0.220243,0.294812,-0.455400
1980-01-06T00:25:28.372338531Z,0.403423,3.999514,8.373122,-0.175236,0.475507,-0.450074
1980-01-06T00:25:28.392242541Z,0.490811,3.913323,8.516774,-0.192280,0.348607,-0.489489
1980-01-06T00:25:28.412157906Z,0.049081,3.762488,8.607754,-0.232893,0.123571,-0.544882
1980-01-06T00:25:28.452107229Z,-0.393846,3.751714,8.545505,-0.318114,0.055660,-0.544882
1980-01-06T00:25:28.471904312Z,-0.629675,3.642778,8.765771,-0.300404,0.091746,-0.511859
1980-01-06T00:25:28.491717646Z,-0.656011,3.812766,8.698733,-0.296809,0.143012,-0.510794
1980-01-06T00:25:28.511465041Z,-0.567426,3.690662,8.804078,-0.301336,0.101600,-0.492684
1980-01-06T00:25:28.531306916Z,-0.684742,3.573346,8.938153,-0.312655,-0.033689,-0.468183
1980-01-06T00:25:28.551165875Z,-1.029507,3.639187,8.951322,-0.312122,-0.098936,-0.455933
1980-01-06T00:25:28.571033166Z,-1.198298,3.807978,8.869919,-0.297741,-0.097871,-0.423975
1980-01-06T00:25:28.630693531Z,-1.211466,3.390190,8.544308,-0.274039,0.092412,-0.322775
1980-01-06T00:25:28.650746968Z,-1.182736,3.383007,8.783728,-0.322642,0.157925,-0.320644
1980-01-06T00:25:28.670407541Z,-1.144428,3.621230,9.018359,-0.380166,0.086952,-0.284425
1980-01-06T00:25:28.690280302Z,-1.176750,3.572149,9.023148,-0.349406,0.066313,-0.260990
1980-01-06T00:25:28.710177750Z,-1.122881,3.418920,8.951322,-0.317848,0.111986,-0.229032
1980-01-06T00:25:28.730052646Z,-1.035492,3.306392,8.980052,-0.356863,0.160855,-0.196008
1980-01-06T00:25:28.769797958Z,-0.926556,2.841918,9.138069,-0.374174,0.130495,-0.171507
1980-01-06T00:25:28.789645041Z,-1.110910,2.613271,9.473258,-0.381364,0.101333,-0.169377
1980-01-06T00:25:28.809554468Z,-1.174356,2.819172,9.358335,-0.349939,0.072704,-0.153398
1980-01-06T00:25:28.829374729Z,-1.144428,2.801216,9.468470,-0.385759,0.083224,-0.138484
1980-01-06T00:25:28.849278687Z,-1.237802,2.732981,9.382277,-0.358861,0.095075,-0.110787
1980-01-06T00:25:28.869128531Z,-1.389834,2.687491,9.415796,-0.284425,0.170842,-0.098004
1980-01-06T00:25:28.928716916Z,-1.632846,2.516306,8.884284,-0.223306,-0.184956,-0.073503
1980-01-06T00:25:28.948601656Z,-1.634043,2.634819,9.085397,-0.514922,-0.127832,0.037284
1980-01-06T00:25:28.968439937Z,-1.611298,2.682703,9.774927,-0.519715,0.081226,0.115048
1980-01-06T00:25:28.988327333Z,-1.557428,2.604892,10.153211,-0.398542,0.279099,0.160855
1980-01-06T00:25:29.008246812Z,-1.403002,2.351106,10.253767,-0.230363,0.339420,0.150202
1980-01-06T00:25:29.028062281Z,-1.271321,2.215834,10.062231,-0.195875,0.207993,0.141680
1980-01-06T00:25:29.048139885Z,-1.359907,2.349909,9.865907,-0.288154,0.058456,0.137419
1980-01-06T00:25:29.068037593Z,-1.641225,2.440889,9.592968,-0.334093,-0.044874,0.172573
1980-01-06T00:25:29.087715406Z,-1.768118,2.376245,9.727043,-0.338221,0.013582,0.236489
1980-01-06T00:25:29.107607854Z,-1.561020,2.396596,9.741408,-0.329832,0.147539,0.275903
1980-01-06T00:25:29.127405250Z,-1.617283,2.236184,9.765350,-0.298540,0.194810,0.304665
1980-01-06T00:25:29.147287385Z,-1.504756,2.014721,9.583391,-0.280697,0.219444,0.328101
1980-01-06T00:25:29.167181135Z,-1.270124,2.036268,9.664794,-0.319579,0.251269,0.330232
1980-01-06T00:25:29.187351499Z,-1.388637,2.141613,9.947309,-0.343814,0.165515,0.347276
1980-01-06T00:25:29.246862541Z,-1.295263,1.528698,10.017639,-0.349273,0.202267,0.422910
1980-01-06T00:25:29.266538114Z,-1.098939,1.545457,10.199598,-0.339420,0.242481,0.410126
1980-01-06T00:25:29.286383635Z,-1.246182,1.607706,10.175656,-0.308793,0.217181,0.381364
1980-01-06T00:25:29.306251291Z,-1.438915,1.681927,10.309731,-0.316250,0.127565,0.402670
1980-01-06T00:25:29.326126968Z,-1.545457,1.540669,10.410288,-0.318247,0.053663,0.452737
1980-01-06T00:25:29.385747541Z,-1.657985,1.253365,10.558729,-0.320378,0.103464,0.563524
1980-01-06T00:25:29.405649416Z,-1.677138,1.327585,10.711958,-0.237021,0.148338,0.567785
1980-01-06T00:25:29.425499104Z,-1.702277,1.162385,10.376769,-0.179497,0.143677,0.581634
1980-01-06T00:25:29.445340041Z,-1.641225,1.013944,10.400711,-0.195476,0.137818,0.607200
1980-01-06T00:25:29.465228426Z,-1.468843,1.289278,10.841245,-0.202001,0.115847,0.616788
1980-01-06T00:25:29.485149781Z,-1.423353,1.210269,11.027992,-0.146341,0.034754,0.601874
1980-01-06T00:25:29.544687489Z,-1.167173,0.863110,10.812514,-0.055793,0.001598,0.681769
1980-01-06T00:25:29.564552281Z,-1.048660,0.829591,10.635344,-0.014914,0.015446,0.676442
1980-01-06T00:25:29.584442541Z,-0.928950,0.836774,10.783784,0.007989,0.008655,0.687095
1980-01-06T00:25:29.604305093Z,-0.800860,0.745794,10.740688,0.032091,-0.014248,0.676442
1980-01-06T00:25:29.624377541Z,-0.673968,0.755371,10.702381,0.030759,-0.023569,0.657268
1980-01-06T00:25:29.644249989Z,-0.551863,0.994791,10.946589,0.038882,-0.107325,0.643419
1980-01-06T00:25:29.683786499Z,-0.669179,0.888249,10.778996,0.121706,-0.238752,0.593352
1980-01-06T00:25:29.703647853Z,-0.796072,1.007959,10.841245,0.137952,-0.227301,0.583764
1980-01-06T00:25:29.723532645Z,-0.697910,0.967257,10.894516,0.139683,-0.254199,0.596015
1980-01-06T00:25:29.743371499Z,-0.647632,1.016339,10.899304,0.168045,-0.220510,0.587493
1980-01-06T00:25:29.763271447Z,-0.661997,1.021127,10.765228,0.184424,-0.198672,0.570449
1980-01-06T00:25:29.783156603Z,-0.432153,1.102530,10.722133,0.161387,-0.258193,0.573644
1980-01-06T00:25:29.803028166Z,-0.445322,1.290475,11.038168,0.160588,-0.375372,0.589623
1980-01-06T00:25:29.842725718Z,-0.148441,1.097741,10.702979,0.311190,-0.482165,0.547013
1980-01-06T00:25:29.862641603Z,0.056264,0.910994,10.497078,0.292548,-0.516120,0.542752
1980-01-06T00:25:29.882516239Z,0.171185,0.994791,10.492290,0.269379,-0.531700,0.518251
1980-01-06T00:25:29.902386395Z,0.240617,0.973243,10.525808,0.249272,-0.525574,0.507598
1980-01-06T00:25:29.922273114Z,0.293290,1.054646,10.492290,0.320378,-0.396012,0.492684
1980-01-06T00:25:29.942094260Z,0.460884,1.177947,10.420464,0.485094,-0.247940,0.442617
1980-01-06T00:25:30.001730718Z,1.011550,0.884658,10.075699,0.308394,-0.439821,0.327569
1980-01-06T00:25:30.021630249Z,1.109712,1.139640,10.190620,0.269778,-0.553404,0.288154
1980-01-06T00:25:30.041442749Z,1.179144,1.438915,10.070910,0.403469,-0.574443,0.218912
1980-01-06T00:25:30.061332072Z,1.306037,1.399411,9.927258,0.538890,-0.552872,0.161387
1980-01-06T00:25:30.081177385Z,1.452083,1.151611,9.352650,0.581634,-0.536893,0.100667
1980-01-06T00:25:30.101042332Z,1.629254,1.130063,9.237728,0.514123,-0.571913,0.081493
1980-01-06T00:25:30.140774989Z,1.752556,1.450886,9.031827,0.517984,-0.464721,-0.039947
1980-01-06T00:25:30.160655041Z,1.881842,1.561020,8.907329,0.501207,-0.429301,-0.102798
1980-01-06T00:25:30.180517020Z,2.025495,1.869871,8.926482,0.492019,-0.518783,-0.158192
1980-01-06T00:25:30.200432437Z,2.027889,2.042254,8.629601,0.453669,-0.628372,-0.241282
1980-01-06T00:25:30.220281551Z,1.948880,2.196680,8.414123,0.390685,-0.721183,-0.320112
1980-01-06T00:25:30.240126395Z,1.934515,2.248155,8.265682,0.322375,-0.758068,-0.365918
1980-01-06T00:25:30.260019989Z,1.985990,2.378639,8.284836,0.263786,-0.723314,-0.389354
1980-01-06T00:25:30.299767853Z,2.203863,2.448071,8.026262,0.194144,-0.596148,-0.438356
1980-01-06T00:25:30.319637228Z,2.414552,2.498349,8.021474,0.138351,-0.525441,-0.460726
1980-01-06T00:25:30.339459312Z,2.574964,2.565387,7.968801,0.134490,-0.472711,-0.516120
1980-01-06T00:25:30.359382905Z,2.741361,2.601300,8.275259,0.125035,-0.444348,-0.562992
1980-01-06T00:25:30.379219832Z,2.651578,2.632425,7.753323,0.146341,-0.405466,-0.636495
1980-01-06T00:25:30.399121447Z,2.574964,2.680309,7.633613,0.161654,-0.330099,-0.723847
1980-01-06T00:25:30.458726030Z,2.091335,2.800019,7.271789,0.065514,-0.374440,-0.854874
1980-01-06T00:25:30.478606395Z,1.906982,2.954445,7.310096,0.064582,-0.275371,-0.865527
1980-01-06T00:25:30.498466082Z,1.771709,3.104083,7.425018,0.084822,-0.143811,-0.867657
1980-01-06T00:25:30.518326603Z,1.719037,3.207033,7.554305,0.093477,-0.058456,-0.871918
1980-01-06T00:25:30.538186968Z,1.643619,3.303998,7.616554,0.092811,-0.075634,-0.883636
1980-01-06T00:25:30.558049624Z,1.493982,3.381810,7.583035,0.081226,-0.092678,-0.897485
1980-01-06T00:25:30.617676603Z,1.139640,3.616442,7.669227,-0.026498,-0.190815,-0.882571
1980-01-06T00:25:30.637556447Z,0.885855,3.736152,7.477691,0.009587,-0.116114,-0.849548
1980-01-06T00:25:30.657422436Z,0.754174,3.749320,7.448960,-0.013316,-0.014514,-0.778175
1980-01-06T00:25:30.677277436Z,0.672771,3.836708,7.410653,-0.063516,0.128897,-0.744087
1980-01-06T00:25:30.697159936Z,0.760159,3.968389,7.611766,-0.129163,0.132226,-0.708933
1980-01-06T00:25:30.717016395Z,0.712275,3.960010,7.635708,-0.212387,0.027830,-0.680171
1980-01-06T00:25:30.756801707Z,0.393846,3.863045,7.750629,-0.289752,-0.033289,-0.622647
1980-01-06T00:25:30.776631291Z,0.424971,3.955221,7.793725,-0.331297,0.006392,-0.574710
1980-01-06T00:25:30.796515926Z,0.486023,3.991134,7.937377,-0.348341,0.056059,-0.542752
1980-01-06T00:25:30.816418322Z,0.584185,3.872621,8.047510,-0.350605,0.101200,-0.508663
1980-01-06T00:25:30.836244416Z,0.804452,3.731363,8.272566,-0.350605,0.137952,-0.519316
1980-01-06T00:25:30.856157384Z,0.711078,3.746926,8.334815,-0.334626,0.083091,-0.535295
1980-01-06T00:25:30.915765978Z,0.278924,3.608062,8.468890,-0.349007,0.158458,-0.529969
1980-01-06T00:25:30.935614103Z,0.073023,3.560178,8.483255,-0.357529,0.161920,-0.500141
1980-01-06T00:25:30.955440561Z,-0.117316,3.554192,8.540716,-0.318247,0.221042,-0.490554
1980-01-06T00:25:30.975541082Z,-0.081403,3.615245,8.598177,-0.332096,0.218379,-0.450074
1980-01-06T00:25:30.995439624Z,-0.223858,3.570952,8.646061,-0.342216,0.205862,-0.433030
1980-01-06T00:25:31.015258061Z,-0.365116,3.472790,8.655638,-0.362190,0.176567,-0.386158
1980-01-06T00:25:31.035154676Z,-0.542287,3.403358,8.789713,-0.352070,0.184157,-0.369114
1980-01-06T00:25:31.074676499Z,-0.565032,3.361459,9.163208,-0.459528,0.108124,-0.296676
1980-01-06T00:25:31.094581707Z,-0.639252,3.375824,9.201516,-0.457930,0.124103,-0.261522
1980-01-06T00:25:31.114438843Z,-0.671574,3.361459,9.594165,-0.460327,0.168045,-0.215716
1980-01-06T00:25:31.134319728Z,-0.511162,3.159149,9.196728,-0.342482,0.192280,-0.226369
1980-01-06T00:25:31.154176342Z,-0.478840,3.034651,9.134478,-0.415453,0.221442,-0.170975
1980-01-06T00:25:31.174035353Z,-0.665588,2.916138,9.158420,-0.401072,0.227434,-0.149670
1980-01-06T00:25:31.213816186Z,-0.639252,2.924517,9.235035,-0.443549,0.141281,-0.079362
1980-01-06T00:25:31.253731551Z,-0.778116,2.665944,9.326015,-0.415586,0.271376,-0.064448
1980-01-06T00:25:31.273382488Z,-0.939724,2.826355,9.268554,-0.384161,0.308127,-0.053796
1980-01-06T00:25:31.293279520Z,-0.896629,2.625242,9.464878,-0.432896,0.254598,-0.008522
1980-01-06T00:25:31.313115457Z,-0.992397,2.592921,9.512762,-0.431565,0.164184,0.037284
1980-01-06T00:25:31.333027228Z,-1.092953,2.561796,9.436148,-0.322509,0.116646,0.083091
1980-01-06T00:25:31.372721447Z,-0.804452,2.009932,9.670779,-0.325704,0.168445,0.143811
1980-01-06T00:25:31.392595613Z,-0.627281,2.181118,9.747394,-0.329566,0.226768,0.121440
1980-01-06T00:25:31.412514311Z,-0.899023,2.085350,9.905411,-0.314253,0.202666,0.153398
1980-01-06T00:25:31.432335717Z,-0.834379,1.890222,9.828796,-0.227567,0.280564,0.102265
1980-01-06T00:25:31.452215978Z,-0.650026,1.934515,9.958083,-0.248073,0.326770,0.112918
1980-01-06T00:25:31.472081811Z,-0.545878,2.021903,10.183139,-0.361790,0.302668,0.183225
1980-01-06T00:25:31.531688686Z,-0.815226,1.598130,10.412982,-0.316117,0.323307,0.169377
1980-01-06T00:25:31.551551759Z,-0.544681,1.483208,10.642825,-0.375239,0.305331,0.184291
1980-01-06T00:25:31.571412853Z,-0.661997,1.589750,10.618883,-0.341950,0.289619,0.150202
1980-01-06T00:25:31.591304103Z,-0.804452,1.546654,10.623672,-0.290950,0.188019,0.158724
1980-01-06T00:25:31.611169936Z,-0.847547,1.411382,10.628460,-0.241549,0.154330,0.145941
1980-01-06T00:25:31.631072853Z,-0.681150,1.374272,10.661979,-0.255530,0.150868,0.133158
1980-01-06T00:25:31.670770457Z,-0.906205,1.435324,10.599730,-0.213718,0.128364,0.127832
1980-01-06T00:25:31.690680457Z,-1.035492,1.424550,10.575788,-0.082025,0.156061,0.087352
1980-01-06T00:25:31.710531290Z,-0.980426,1.213860,10.312426,-0.094542,0.106660,0.101200
1980-01-06T00:25:31.730437176Z,-1.089362,1.247379,10.211869,-0.129296,0.011984,0.128897
1980-01-06T00:25:31.750278478Z,-1.377863,1.267730,10.202292,-0.083490,-0.075501,0.154463
1980-01-06T00:25:31.770124884Z,-1.405396,1.121683,9.886257,-0.086420,-0.048603,0.172573
1980-01-06T00:25:31.790014103Z,-1.134852,1.204283,9.785701,-0.176701,-0.007590,0.204531
1980-01-06T00:25:31.829770561Z,-1.213860,1.297657,9.728240,-0.199604,-0.061652,0.239684
1980-01-06T00:25:31.849628738Z,-1.292869,1.094150,9.661202,-0.173771,-0.029428,0.246076
1980-01-06T00:25:31.869485769Z,-1.074997,0.970849,9.661202,-0.202267,-0.017311,0.242880
1980-01-06T00:25:31.889406967Z,-0.887052,0.981623,9.632472,-0.261655,-0.095341,0.274838
1980-01-06T00:25:31.909298738Z,-0.793678,1.013944,9.608530,-0.230896,-0.090547,0.242880
1980-01-06T00:25:31.929107853Z,-0.836774,0.951695,9.507974,-0.182426,-0.034088,0.219444
1980-01-06T00:25:31.949022592Z,-0.842759,0.887052,9.488820,-0.137020,0.082292,0.211987
1980-01-06T00:25:31.988699832Z,-0.913388,0.672771,9.512762,-0.064582,0.253799,0.189617
1980-01-06T00:25:32.008600665Z,-0.859518,0.688333,9.622895,-0.159257,0.151534,0.169377
1980-01-06T00:25:32.028467853Z,-0.884658,0.664391,9.560646,-0.247807,-0.037151,0.198139
1980-01-06T00:25:32.048319415Z,-0.988805,0.774524,9.651626,-0.266982,-0.090015,0.192813
1980-01-06T00:25:32.068162905Z,-1.183933,0.810437,9.804854,-0.199737,-0.034222,0.200270
1980-01-06T00:25:32.088067123Z,-0.979228,0.571017,9.876680,-0.166980,0.094409,0.205596
1980-01-06T00:25:32.147645509Z,-0.745794,0.493206,9.809643,-0.139949,0.082957,0.168312
1980-01-06T00:25:32.167506394Z,-0.766145,0.575805,9.905411,-0.122106,0.040347,0.170442
1980-01-06T00:25:32.187413530Z,-0.732626,0.482432,9.713875,-0.111720,0.003995,0.171507
1980-01-06T00:25:32.207283842Z,-0.544681,0.360327,9.632472,-0.135022,-0.008522,0.154463
1980-01-06T00:25:32.227150978Z,-0.398635,0.337582,9.699510,-0.156461,-0.110921,0.150202
1980-01-06T00:25:32.247023321Z,-0.403423,0.378284,9.737817,-0.121973,-0.223439,0.138484
1980-01-06T00:25:32.286767019Z,-0.641646,0.260968,9.699510,-0.048603,-0.167779,0.106526
1980-01-06T00:25:32.306654988Z,-0.565032,0.232238,9.613318,-0.040081,-0.055527,0.046872
1980-01-06T00:25:32.326476811Z,-0.548272,0.187945,9.713875,-0.058190,-0.046872,0.011718
1980-01-06T00:25:32.346349050Z,-0.521936,0.324414,9.986814,-0.077897,-0.104795,0.013848
1980-01-06T00:25:32.366248477Z,-0.695516,0.372298,9.900622,-0.057524,-0.123970,-0.006392
1980-01-06T00:25:32.386084936Z,-0.772130,0.305261,9.713875,-0.066446,-0.139816,-0.006392
1980-01-06T00:25:32.445696602Z,-0.781707,0.269348,9.828796,-0.104130,-0.114915,-0.017044
1980-01-06T00:25:32.465602644Z,-0.778116,-0.068235,9.742605,-0.200536,-0.136620,-0.031958
1980-01-06T00:25:32.485511342Z,-0.936133,0.189142,9.881469,-0.225303,-0.111986,-0.037284
1980-01-06T00:25:32.505558061Z,-1.060631,0.363919,9.948506,-0.192147,-0.039814,0.004261
1980-01-06T00:25:32.525383373Z,-0.694318,0.235829,9.752182,-0.161121,0.107059,-0.003196
1980-01-06T00:25:32.545072227Z,-0.386664,0.278924,10.149619,-0.104130,0.002663,0.004261
1980-01-06T00:25:32.604901550Z,-0.477643,0.056264,9.929353,0.025966,-0.197873,-0.038349
1980-01-06T00:25:32.624550196Z,-0.808043,0.088585,10.010756,0.019441,-0.231961,0.000000
1980-01-06T00:25:32.644417644Z,-0.667982,0.099359,10.005967,-0.003462,-0.174970,-0.002131
1980-01-06T00:25:32.664272540Z,-0.506374,0.068235,9.680356,-0.036485,-0.204531,-0.014914
1980-01-06T00:25:32.684151759Z,-0.487220,0.171185,9.627684,-0.092145,-0.253400,0.014914
1980-01-06T00:25:32.704045040Z,-0.407014,0.148441,9.632472,-0.108790,-0.315052,0.035154
1980-01-06T00:25:32.743753686Z,-0.408211,0.096965,9.211093,-0.075501,-0.349806,0.073503
1980-01-06T00:25:32.763646706Z,-0.205901,-0.058658,8.914211,-0.113317,-0.234891,0.042611
1980-01-06T00:25:32.783603425Z,-0.118513,-0.123301,8.727464,-0.167912,-0.149803,0.027697
1980-01-06T00:25:32.803377071Z,1.941698,0.256180,9.306861,-2.124135,-1.348091,0.929975
1980-01-06T00:25:32.823341081Z,-0.007183,0.945710,0.855329,0.418382,0.022770,-0.209857
1980-01-06T00:25:32.843105248Z,-0.549469,1.137246,10.910975,-0.151134,-0.051399,-0.005326
1980-01-06T00:25:32.902716081Z,-0.003591,-0.220267,9.622895,-0.050733,-0.019574,-0.023436
1980-01-06T00:25:32.922648061Z,-0.021548,-0.275333,9.608530,-0.040347,-0.016911,-0.020240
1980-01-06T00:25:32.942493998Z,-0.017957,-0.226252,9.756970,-0.014248,-0.014781,-0.013848
1980-01-06T00:25:32.962354258Z,0.034716,-0.150835,9.824008,0.011851,-0.011452,-0.010653
1980-01-06T00:25:32.982230977Z,-0.050278,-0.159214,9.742605,-0.003063,-0.007723,-0.008522
1980-01-06T00:25:33.002114988Z,-0.027533,-0.181959,9.886257,-0.008123,-0.019042,-0.009587
1980-01-06T00:25:33.061692904Z,-0.208296,-0.298078,9.857527,0.130228,-0.039814,-0.026632
1980-01-06T00:25:33.081572383Z,-0.065841,-0.660800,9.541492,-0.078563,-0.003196,-0.014914
1980-01-06T00:25:33.101474519Z,0.011971,0.177171,9.871892,-0.013183,-0.010386,-0.013848
1980-01-06T00:25:33.121317123Z,0.026336,-0.167594,9.728240,0.035154,-0.007989,-0.012783
1980-01-06T00:25:33.141180144Z,-0.027533,-0.383072,9.637260,-0.003595,-0.008655,-0.013848
1980-01-06T00:25:33.161058060Z,-0.007183,-0.190339,9.728240,-0.016911,-0.007856,-0.013848
1980-01-06T00:25:33.181085925Z,-0.022745,-0.129287,9.742605,-0.001465,-0.008522,-0.014914
1980-01-06T00:25:33.200785560Z,0.031125,-0.185551,9.742605,0.002929,-0.007590,-0.013848
1980-01-06T00:25:33.220684154Z,-0.017957,-0.219069,9.718663,-0.002663,-0.008522,-0.014914
1980-01-06T00:25:33.240533477Z,0.250194,-0.174777,9.598953,-0.285357,-0.004794,0.002131
1980-01-06T00:25:33.260376498Z,0.186748,-0.610521,9.843162,0.335957,0.003995,-0.022371
1980-01-06T00:25:33.280890769Z,-0.064643,-0.343568,9.766547,-0.172173,0.012384,-0.013848
1980-01-06T00:25:33.300124831Z,-4.061763,1.149217,11.753735,-0.211455,-0.167380,-0.284425
1980-01-06T00:25:33.359794154Z,-0.379481,-0.397437,9.752182,0.001065,-0.038483,-0.003196
1980-01-06T00:25:33.379619310Z,0.307655,-0.269348,9.632472,-0.020639,-0.005326,-0.014914
1980-01-06T00:25:33.399465665Z,-0.172383,-0.101754,9.771336,-0.005193,-0.004527,-0.013848
1980-01-06T00:25:33.419350040Z,0.049081,-0.187945,9.752182,0.002929,-0.011851,-0.012783
1980-01-06T00:25:33.439205873Z,-0.026336,-0.205901,9.709086,0.000266,-0.006392,-0.014914
1980-01-06T00:25:33.459077487Z,-0.003591,-0.199916,9.728240,-0.003462,-0.009587,-0.013848
1980-01-06T00:25:33.498827592Z,-0.029928,-0.189142,9.718663,-0.003995,-0.009188,-0.013848
1980-01-06T00:25:33.518697435Z,-0.029928,-0.211887,9.718663,-0.002530,-0.007856,-0.013848
1980-01-06T00:25:33.538585769Z,-0.040701,-0.222661,9.723452,-0.002929,-0.009454,-0.013848
1980-01-06T00:25:33.558429258Z,-0.011971,-0.202310,9.737817,-0.002131,-0.008123,-0.013848
1980-01-06T00:25:33.578317435Z,0.000000,-0.195127,9.723452,-0.001065,-0.008389,-0.013848
1980-01-06T00:25:33.598189154Z,-0.015562,-0.181959,9.723452,-0.001598,-0.007590,-0.013848
1980-01-06T00:25:33.618079050Z,-0.011971,-0.189142,9.728240,-0.002397,-0.008389,-0.014914
1980-01-06T00:25:33.677639779Z,-0.026336,-0.174777,9.737817,-0.003995,-0.008922,-0.013848
1980-01-06T00:25:33.697742227Z,0.000000,-0.169988,9.728240,-0.003728,-0.008788,-0.013848
1980-01-06T00:25:33.717422227Z,-0.001197,-0.207098,9.728240,-0.003595,-0.008522,-0.014914
1980-01-06T00:25:33.737279258Z,-0.019154,-0.262165,9.709086,-0.002131,-0.008256,-0.014914
1980-01-06T00:25:33.757159102Z,0.003591,-0.217872,9.709086,-0.000000,-0.007989,-0.013848
1980-01-06T00:25:33.777031341Z,0.003591,-0.168791,9.709086,0.001065,-0.007590,-0.013848
1980-01-06T00:25:33.816775977Z,-0.055067,-0.215478,9.627684,-0.001598,-0.009587,-0.014914
1980-01-06T00:25:33.836621758Z,-0.032322,-0.164003,9.718663,-0.000932,-0.009454,-0.013848
1980-01-06T00:25:33.856489831Z,-0.017957,-0.148441,9.800066,-0.002131,-0.007590,-0.013848
1980-01-06T00:25:33.876378998Z,0.002394,-0.155623,9.761759,-0.004527,-0.008256,-0.013848
1980-01-06T00:25:33.896236029Z,0.001197,-0.204704,9.733028,-0.003728,-0.007723,-0.013848
1980-01-06T00:25:33.916125664Z,-0.005986,-0.274136,9.575011,-0.000266,-0.008655,-0.013848
