timestamp,accel_x,accel_y,accel_z,gyro_x,gyro_y,gyro_z
2025-08-05T19:47:14.292710755Z,-0.049081,-0.213084,9.699510,-0.002131,-0.007457,-0.014914
2025-08-05T19:47:14.312515809Z,-0.062249,-0.231040,9.685144,-0.004261,-0.008389,-0.014914
2025-08-05T19:47:14.332389978Z,-0.080206,-0.226252,9.742605,-0.004128,-0.009188,-0.013848
2025-08-05T19:47:14.352251908Z,-0.046687,-0.243011,9.776124,-0.001465,-0.008389,-0.014914
2025-08-05T19:47:14.372199411Z,-0.076614,-0.225055,9.680356,-0.001065,-0.006924,-0.013848
2025-08-05T19:47:14.392023111Z,-0.076614,-0.208296,9.723452,-0.003063,-0.009454,-0.013848
2025-08-05T19:47:14.431722439Z,-0.059855,-0.244209,9.709086,-0.003462,-0.008256,-0.013848
2025-08-05T19:47:14.451632286Z,-0.057461,-0.247800,9.709086,-0.003462,-0.007590,-0.012783
2025-08-05T19:47:14.471512445Z,-0.068235,-0.252588,9.713875,-0.001598,-0.007723,-0.012783
2025-08-05T19:47:14.491396979Z,-0.081403,-0.232238,9.709086,-0.001731,-0.007856,-0.013848
2025-08-05T19:47:14.511245366Z,-0.081403,-0.225055,9.688437,-0.001864,-0.008788,-0.014381
2025-08-05T19:47:14.531115525Z,-0.069432,-0.219069,9.707590,-0.003063,-0.009587,-0.015446
2025-08-05T19:47:14.551005997Z,-0.057461,-0.229843,9.712379,-0.002264,-0.008256,-0.014381
2025-08-05T19:47:14.590739387Z,-0.073023,-0.227449,9.702802,-0.003728,-0.009188,-0.014381
2025-08-05T19:47:14.610612880Z,-0.055067,-0.239420,9.702802,-0.002131,-0.008123,-0.014381
2025-08-05T19:47:14.630475591Z,-0.070629,-0.229843,9.707590,-0.002663,-0.008256,-0.014381
2025-08-05T19:47:14.650323822Z,-0.056264,-0.244209,9.707590,-0.001065,-0.008522,-0.014381
2025-08-05T19:47:14.670199762Z,-0.073023,-0.244209,9.707590,-0.002796,-0.008522,-0.014381
2025-08-05T19:47:14.690286903Z,-0.080206,-0.241814,9.712379,-0.001065,-0.007856,-0.014381
2025-08-05T19:47:14.710134770Z,-0.069432,-0.235829,9.707590,-0.003063,-0.007989,-0.014381
2025-08-05T19:47:14.729789614Z,-0.053870,-0.217872,9.717167,-0.002264,-0.008123,-0.014381
2025-08-05T19:47:14.749705138Z,-0.068235,-0.232238,9.707590,-0.002663,-0.007856,-0.014381
2025-08-05T19:47:14.769547380Z,-0.063446,-0.238223,9.707590,-0.002530,-0.008522,-0.015446
2025-08-05T19:47:14.789420247Z,-0.059855,-0.240617,9.707590,-0.002663,-0.007723,-0.014381
2025-08-05T19:47:14.809297750Z,-0.068235,-0.241814,9.702802,-0.003063,-0.008522,-0.015446
2025-08-05T19:47:14.829192232Z,-0.073023,-0.223858,9.717167,-0.003728,-0.007590,-0.014381
2025-08-05T19:47:14.849027859Z,-0.068235,-0.233435,9.707590,-0.001465,-0.007989,-0.014381
2025-08-05T19:47:14.908626148Z,-0.057461,-0.240617,9.717167,-0.002530,-0.008123,-0.014381
2025-08-05T19:47:14.928485421Z,-0.062249,-0.216675,9.712379,-0.003595,-0.007989,-0.014381
2025-08-05T19:47:14.948388966Z,-0.050278,0.641646,10.344448,-0.175369,0.029028,-0.017577
2025-08-05T19:47:14.968321573Z,0.207098,0.549469,10.373178,0.085088,-0.017311,-0.001598
2025-08-05T19:47:14.988121158Z,0.029928,-0.659603,9.286211,0.054861,0.031692,0.013316
2025-08-05T19:47:15.008009130Z,-0.159214,-0.339977,10.296564,0.022237,-0.001198,-0.012251
2025-08-05T19:47:15.028076322Z,0.699107,-0.294487,9.903914,0.026765,0.014248,0.181627
2025-08-05T19:47:15.047946481Z,-0.634463,-0.116119,9.549573,0.023968,-0.043010,0.265783
2025-08-05T19:47:15.067634659Z,-0.026336,-0.472855,9.827300,0.033023,-0.026365,0.115581
2025-08-05T19:47:15.087485026Z,-0.433351,-0.635661,9.426870,0.002131,-0.010919,0.445813
2025-08-05T19:47:15.107349976Z,-0.186748,-0.527921,9.886557,-0.110255,0.123437,0.629038
2025-08-05T19:47:15.127218677Z,-0.653617,0.017957,10.465954,-0.101200,0.588558,0.362722
2025-08-05T19:47:15.147083419Z,-0.367510,-0.231040,10.470742,0.172440,1.013332,0.005859
2025-08-05T19:47:15.206708010Z,-0.551863,-0.260968,10.930429,0.609597,1.170858,0.210390
2025-08-05T19:47:15.226566763Z,-0.675165,-0.460884,10.801142,0.392017,0.886699,0.555535
2025-08-05T19:47:15.246412599Z,-1.246182,-0.233435,10.882545,0.442218,0.843289,0.542752
2025-08-05T19:47:15.266333695Z,-1.525106,0.219069,11.098022,0.490288,0.755938,0.634364
2025-08-05T19:47:15.286209219Z,-1.899799,0.305261,10.815507,0.496280,0.633965,0.829308
2025-08-05T19:47:15.306094118Z,-2.233790,0.057461,10.231321,0.609064,0.877511,0.681236
2025-08-05T19:47:15.345809435Z,-1.569399,0.314838,10.700585,0.631968,0.995755,0.414920
2025-08-05T19:47:15.365869336Z,-1.448492,0.719458,10.734104,0.577506,0.682035,0.402137
2025-08-05T19:47:15.385524857Z,-1.663970,0.943315,10.451589,0.523178,0.356464,0.437291
2025-08-05T19:47:15.405434026Z,-1.896208,1.033098,10.183437,0.528504,0.262721,0.393615
2025-08-05T19:47:15.425265591Z,-1.830367,1.273715,9.900922,0.590689,0.304399,0.290284
2025-08-05T19:47:15.445125906Z,-1.770512,1.248576,8.852262,0.791757,0.241549,0.264718
2025-08-05T19:47:15.465013617Z,-1.655591,1.240196,10.001478,0.644751,0.185755,0.169910
2025-08-05T19:47:15.504772842Z,-2.354697,1.539472,9.654319,0.414521,-0.108524,0.215183
2025-08-05T19:47:15.524609823Z,-2.419341,1.914164,9.582493,0.526640,-0.098670,0.121440
2025-08-05T19:47:15.544511701Z,-2.584541,2.055422,9.410110,0.657933,-0.002530,0.119310
2025-08-05T19:47:15.564255556Z,-2.450465,2.031480,9.266459,0.774580,0.183092,0.073503
2025-08-05T19:47:15.584235404Z,-2.256535,2.025495,9.309554,0.806538,0.243945,0.013848
2025-08-05T19:47:15.604092542Z,-2.154782,2.063802,9.371803,0.711729,0.125435,-0.008522
2025-08-05T19:47:15.663769217Z,-2.177526,2.747346,9.199421,0.673646,-0.229298,-0.023436
2025-08-05T19:47:15.683598803Z,-2.169147,2.825158,9.132383,0.682035,-0.134356,-0.112918
2025-08-05T19:47:15.703470264Z,-2.063802,3.098097,9.307459,0.622114,-0.114782,-0.090015
2025-08-05T19:47:15.723315370Z,-2.159570,3.113659,9.211691,0.556467,-0.179231,-0.060187
2025-08-05T19:47:15.743200321Z,-2.114080,3.314772,9.240421,0.553937,-0.266849,-0.046339
2025-08-05T19:47:15.763082876Z,-2.299631,3.331532,9.005790,0.627707,-0.232361,-0.096406
2025-08-05T19:47:15.802812464Z,-2.158373,3.235764,8.814254,0.638226,-0.172040,-0.150735
2025-08-05T19:47:15.822651789Z,-2.102109,3.682282,8.708909,0.577373,-0.256329,-0.104928
2025-08-05T19:47:15.842542730Z,-2.072181,3.677494,8.637083,0.539290,-0.332362,-0.108124
2025-08-05T19:47:15.862404972Z,-2.066196,3.751714,8.675390,0.528637,-0.417583,-0.135821
2025-08-05T19:47:15.882297110Z,-2.343924,3.922899,8.574833,0.533697,-0.485893,-0.123038
2025-08-05T19:47:15.902143987Z,-2.564190,3.871424,8.493430,0.554869,-0.404401,-0.179497
2025-08-05T19:47:15.922007480Z,-2.406173,3.965995,8.416816,0.506000,-0.353534,-0.153931
2025-08-05T19:47:15.961763214Z,-1.839944,3.928885,8.378509,0.342749,-0.421045,-0.167779
2025-08-05T19:47:15.981824156Z,-1.875857,4.204218,8.354567,0.300671,-0.476439,-0.130495
2025-08-05T19:47:16.001698065Z,-1.787272,4.495114,8.455123,0.376038,-0.457398,-0.133691
2025-08-05T19:47:16.021600776Z,-1.584962,4.388572,8.349778,0.456066,-0.456732,-0.157126
2025-08-05T19:47:16.041463800Z,-1.446098,4.171896,8.158242,0.415186,-0.525441,-0.165648
2025-08-05T19:47:16.061345157Z,-1.355118,4.056975,7.942764,0.309859,-0.611994,-0.197606
2025-08-05T19:47:16.081046355Z,-1.443704,4.368221,8.024167,0.232627,-0.668719,-0.202933
2025-08-05T19:47:16.140619123Z,-1.527501,4.587290,8.335413,0.196674,-0.401871,-0.253000
2025-08-05T19:47:16.160526158Z,-1.246182,4.842273,8.531737,0.271509,-0.390685,-0.270044
2025-08-05T19:47:16.180355431Z,-1.103727,4.788404,8.325836,0.318514,-0.468183,-0.254065
2025-08-05T19:47:16.200219287Z,-1.327585,4.730943,8.110358,0.335824,-0.523843,-0.223173
2025-08-05T19:47:16.220089915Z,-1.365892,4.685453,7.976283,0.292015,-0.452204,-0.210390
2025-08-05T19:47:16.279920081Z,-0.934936,5.048174,8.158242,0.326503,-0.371244,-0.211455
2025-08-05T19:47:16.299842689Z,-0.986411,5.201403,8.440758,0.386158,-0.401871,-0.221042
2025-08-05T19:47:16.319442220Z,-1.051055,4.964377,7.966706,0.347010,-0.404268,-0.230630
2025-08-05T19:47:16.339309462Z,-0.768539,5.087678,8.167819,0.287621,-0.421978,-0.251935
2025-08-05T19:47:16.359184777Z,-0.915782,5.204995,8.052897,0.256196,-0.498144,-0.210390
2025-08-05T19:47:16.379048217Z,-0.869095,5.117606,8.110358,0.245943,-0.476839,-0.223173
2025-08-05T19:47:16.399125410Z,-0.967257,5.210980,8.134300,0.278034,-0.479102,-0.239152
2025-08-05T19:47:16.418901401Z,-0.962469,5.207389,7.989152,0.305997,-0.460061,-0.242880
2025-08-05T19:47:16.438651350Z,-0.811634,5.157111,7.783250,0.304799,-0.408262,-0.259924
2025-08-05T19:47:16.458524634Z,-0.707487,5.264850,7.768885,0.280297,-0.387223,-0.249272
2025-08-05T19:47:16.478405887Z,-0.627281,5.352238,7.893384,0.324240,-0.374174,-0.242880
2025-08-05T19:47:16.498258754Z,-0.629675,5.275623,7.697059,0.324506,-0.376837,-0.259924
2025-08-05T19:47:16.518116673Z,-0.659603,5.279215,7.711424,0.256462,-0.408129,-0.255663
2025-08-05T19:47:16.577733660Z,-0.587777,5.513846,7.486370,0.320112,-0.147406,-0.256729
2025-08-05T19:47:16.597613715Z,-0.320823,5.464766,7.558196,0.316516,-0.109589,-0.269512
2025-08-05T19:47:16.617501218Z,-0.262165,5.556942,7.467216,0.300271,-0.247407,-0.252467
2025-08-05T19:47:16.637382002Z,-0.442927,5.487510,7.194277,0.238885,-0.335558,-0.246076
2025-08-05T19:47:16.657257733Z,-0.512359,5.538986,6.863877,0.161654,-0.304133,-0.255663
2025-08-05T19:47:16.677127788Z,-0.456095,5.403713,6.973412,0.069908,-0.218778,-0.239152
2025-08-05T19:47:16.736756182Z,0.089783,5.817910,7.136218,0.108657,-0.301470,-0.311590
2025-08-05T19:47:16.756595663Z,-0.351948,5.659893,7.193678,0.114116,-0.311989,-0.308394
2025-08-05T19:47:16.776453530Z,-0.529119,5.653907,7.093122,0.079096,-0.191215,-0.348874
2025-08-05T19:47:16.796353950Z,-0.512359,5.786786,7.150583,0.052731,-0.088950,-0.361657
2025-08-05T19:47:16.816191817Z,-0.512359,5.950788,7.433098,0.022637,-0.064848,-0.326503
2025-08-05T19:47:16.836074944Z,-0.460884,6.157887,7.624635,0.062052,-0.082158,-0.314785
2025-08-05T19:47:16.856194064Z,-0.684742,6.313510,7.706038,0.162852,-0.129962,-0.292415
2025-08-05T19:47:16.895673598Z,-0.948104,5.767632,7.279870,0.193745,-0.092145,-0.294545
2025-08-05T19:47:16.915549851Z,-0.774524,5.889736,7.212832,0.117978,-0.046872,-0.288154
2025-08-05T19:47:16.935412457Z,-0.427365,6.145916,7.385214,0.097338,-0.038749,-0.289219
2025-08-05T19:47:16.955334544Z,-0.351948,6.308722,7.332542,0.134756,-0.092678,-0.272175
2025-08-05T19:47:16.975184807Z,-0.647632,6.200983,7.332542,0.173771,-0.117312,-0.239152
2025-08-05T19:47:16.995025642Z,-0.744597,6.050148,7.208044,0.195742,-0.056858,-0.243413
2025-08-05T19:47:17.054836017Z,-0.735020,5.944803,7.117064,0.097338,-0.108657,-0.259392
2025-08-05T19:47:17.074853573Z,-0.974440,6.124368,7.160160,0.085487,-0.114649,-0.243413
2025-08-05T19:47:17.094363520Z,-1.098939,6.180632,7.006930,0.127965,-0.078430,-0.239152
2025-08-05T19:47:17.114232377Z,-1.260547,5.986701,6.901586,0.158325,-0.046472,-0.238086
2025-08-05T19:47:17.134122848Z,-1.454478,5.996278,6.805818,0.123437,-0.031825,-0.201867
2025-08-05T19:47:17.193741137Z,-1.969231,6.165070,6.729203,0.072704,0.020107,-0.061253
2025-08-05T19:47:17.213566035Z,-2.075773,6.369773,6.566398,0.102532,0.077764,-0.014381
2025-08-05T19:47:17.233528383Z,-2.061408,6.392519,6.288670,0.096007,0.111320,0.049535
2025-08-05T19:47:17.253343645Z,-2.085350,6.202179,6.173748,0.050600,0.125435,0.093211
2025-08-05T19:47:17.273236044Z,-2.201468,6.260838,5.891232,-0.011452,0.110255,0.163518
2025-08-05T19:47:17.293099067Z,-2.341529,6.447585,5.450699,-0.068576,0.110388,0.222107
2025-08-05T19:47:17.352702252Z,-2.777274,5.712565,4.842572,-0.333694,0.243413,0.441552
2025-08-05T19:47:17.372634808Z,-2.966416,5.585672,4.976647,-0.473243,0.247407,0.532099
2025-08-05T19:47:17.392479602Z,-3.248932,5.804742,5.101146,-0.570182,0.203332,0.621581
2025-08-05T19:47:17.412354031Z,-3.740940,5.591658,5.354931,-0.566587,0.148737,0.786697
2025-08-05T19:47:17.432192419Z,-4.266468,5.254076,5.402815,-0.445813,0.282162,0.953943
2025-08-05T19:47:17.452030286Z,-4.088099,5.361814,4.732439,-0.355265,0.578838,0.993358
2025-08-05T19:47:17.491775968Z,-3.584120,4.686650,3.995025,-0.609996,0.881372,1.265000
2025-08-05T19:47:17.511649513Z,-3.264494,4.594473,4.876091,-0.672314,1.181777,1.323590
2025-08-05T19:47:17.531720247Z,-2.693477,5.542577,5.307047,-0.527572,1.436641,1.253283
2025-08-05T19:47:17.551393007Z,-1.960851,5.895722,5.642236,-0.607467,1.195359,1.322525
2025-08-05T19:47:17.571270823Z,-1.848324,5.108029,4.560056,-0.865393,1.142362,1.519598
2025-08-05T19:47:17.591119835Z,-1.344344,4.007894,4.674978,-0.788162,1.670067,1.373657
2025-08-05T19:47:17.650732395Z,0.136469,5.007473,7.463624,-0.744087,1.714409,1.133973
2025-08-05T19:47:17.670608804Z,-0.270545,3.694253,7.257723,-0.537559,1.786980,0.959270
2025-08-05T19:47:17.690502974Z,-0.618901,2.894590,8.382998,-0.711729,1.872334,0.777110
2025-08-05T19:47:17.710337351Z,-0.627281,2.985569,9.455601,-0.995222,1.675793,0.715324
2025-08-05T19:47:17.730225791Z,-1.413776,3.238158,10.260052,-1.017726,1.674594,0.720651
2025-08-05T19:47:17.750088242Z,-1.236605,3.066972,10.781988,-0.868722,2.087118,0.509729
2025-08-05T19:47:17.829585753Z,-2.455254,2.857480,13.066056,-0.690823,1.139965,-0.159257
2025-08-05T19:47:17.849452109Z,-3.193865,2.737770,13.214497,-0.496546,1.002546,-0.248739
2025-08-05T19:47:17.869347529Z,-3.277662,2.822764,13.042114,-0.519316,0.784567,-0.205063
2025-08-05T19:47:17.889182427Z,-3.323152,2.961627,12.094010,-0.304665,0.668453,-0.292415
2025-08-05T19:47:17.909069617Z,-3.951630,2.717419,11.481095,-0.134090,0.462724,-0.363788
2025-08-05T19:47:17.968752751Z,-5.020641,3.836708,10.963050,-0.138085,0.258593,-0.308394
2025-08-05T19:47:17.988562857Z,-4.825513,3.409343,10.498574,0.099070,0.329566,-0.306263
2025-08-05T19:47:18.008400620Z,-4.170700,2.973598,10.134656,0.064315,0.270444,-0.268979
2025-08-05T19:47:18.028276456Z,-3.801992,3.100491,9.497798,0.013049,0.169910,-0.284958
2025-08-05T19:47:18.048167136Z,-4.357447,3.321955,9.253590,0.048603,0.157925,-0.289219
2025-08-05T19:47:18.068233390Z,-4.531027,3.062184,9.339781,0.076166,0.119043,-0.271110
2025-08-05T19:47:18.107807300Z,-4.830302,2.936488,9.272743,0.000533,0.009987,-0.218912
2025-08-05T19:47:18.127640011Z,-4.740520,3.081338,8.808268,-0.020773,-0.008522,-0.195476
2025-08-05T19:47:18.147508242Z,-4.708198,3.043030,8.678981,-0.032757,-0.016778,-0.174171
2025-08-05T19:47:18.167392516Z,-4.777629,3.161543,8.645462,-0.054062,-0.044874,-0.128364
2025-08-05T19:47:18.187244185Z,-4.647145,3.411737,8.875306,-0.026898,-0.062984,-0.151800
2025-08-05T19:47:18.207336378Z,-4.425682,3.015497,8.094796,-0.037018,-0.064582,-0.140082
2025-08-05T19:47:18.227168151Z,-4.471172,2.932897,8.018182,-0.060054,-0.133824,-0.146474
2025-08-05T19:47:18.266767009Z,-4.302381,2.995146,8.161834,-0.025167,-0.242081,-0.120907
2025-08-05T19:47:18.286590657Z,-4.408922,2.924517,8.123527,0.039415,-0.224105,-0.129430
2025-08-05T19:47:18.306501649Z,-4.695030,2.773683,8.109161,0.068843,-0.147006,-0.134756
2025-08-05T19:47:18.326358943Z,-4.648343,2.821567,8.214506,0.048603,-0.062318,-0.141147
2025-08-05T19:47:18.346225873Z,-4.364630,2.904167,8.329428,0.016512,-0.053663,-0.113451
2025-08-05T19:47:18.366109261Z,-4.064157,2.944868,8.367735,0.010519,-0.094942,-0.109190
2025-08-05T19:47:18.425731196Z,-4.197036,3.141193,8.564059,-0.020639,-0.235024,-0.120907
2025-08-05T19:47:18.445597188Z,-4.253299,3.088520,8.564059,-0.022237,-0.297209,-0.079362
2025-08-05T19:47:18.465482973Z,-4.361038,2.985569,8.276755,-0.039415,-0.256995,-0.103863
2025-08-05T19:47:18.485324173Z,-4.349067,3.230975,8.482656,-0.111586,-0.213852,-0.097472
2025-08-05T19:47:18.505168967Z,-4.291606,3.236961,8.228871,-0.156461,-0.164184,-0.116646
2025-08-05T19:47:18.525032615Z,-4.151546,3.221398,8.209718,-0.217447,-0.176701,-0.126234
2025-08-05T19:47:18.545024650Z,-4.147954,3.002329,8.037335,-0.367649,-0.200270,-0.103863
2025-08-05T19:47:18.584657675Z,-4.152743,3.071761,8.219295,-0.648346,-0.442883,-0.022903
2025-08-05T19:47:18.604505907Z,-4.246117,2.926912,8.113950,-0.792023,-0.518783,0.023968
2025-08-05T19:47:18.624409556Z,-3.910928,2.807201,8.358158,-0.871652,-0.489489,-0.015446
2025-08-05T19:47:18.644269610Z,-3.598485,2.764106,8.631097,-0.970988,-0.578172,0.014381
2025-08-05T19:47:18.664146436Z,-3.773262,2.523489,8.626308,-1.094558,-0.628505,0.050600
2025-08-05T19:47:18.723836549Z,-3.263297,2.144008,9.028535,-1.225719,-0.472444,0.152865
2025-08-05T19:47:18.743599675Z,-3.181894,1.643619,9.148245,-1.149020,-0.543684,0.176301
2025-08-05T19:47:18.763525147Z,-3.130419,1.391031,8.966286,-1.103347,-0.595482,0.160322
2025-08-05T19:47:18.783334889Z,-3.138798,1.447295,9.090784,-1.017194,-0.540089,0.170975
2025-08-05T19:47:18.803235152Z,-3.069367,1.417367,8.937555,-0.871386,-0.395080,0.203998
2025-08-05T19:47:18.823117707Z,-2.967613,1.140837,8.990228,-0.687095,-0.319979,0.228499
2025-08-05T19:47:18.882706204Z,-2.744952,0.594959,9.440337,-0.517185,-0.198272,0.265783
2025-08-05T19:47:18.902762250Z,-2.583344,0.617704,9.569624,-0.506000,-0.235823,0.282827
2025-08-05T19:47:18.922494022Z,-2.694674,0.542287,9.823410,-0.453536,-0.276036,0.311590
2025-08-05T19:47:18.942344494Z,-2.661155,0.241814,9.780313,-0.383628,-0.240750,0.284958
2025-08-05T19:47:18.962188767Z,-2.492364,0.073023,9.818622,-0.390419,-0.258726,0.289219
2025-08-05T19:47:18.982056686Z,-2.486378,0.003591,9.780313,-0.447144,-0.320378,0.332895
2025-08-05T19:47:19.041663569Z,-2.264915,-0.310049,9.756371,-0.311590,-0.181361,0.319046
2025-08-05T19:47:19.061579093Z,-2.424129,-0.246603,9.904813,-0.282961,-0.182693,0.326503
2025-08-05T19:47:19.081411803Z,-2.361880,-0.395043,9.703699,-0.287887,-0.106260,0.312655
2025-08-05T19:47:19.101290400Z,-2.070984,-0.451307,9.646238,-0.307994,-0.090281,0.323307
2025-08-05T19:47:19.121163111Z,-1.920150,-0.616507,9.761160,-0.348075,-0.161254,0.314785
2025-08-05T19:47:19.141034520Z,-2.025495,-0.693121,9.756371,-0.341151,-0.249405,0.289219
2025-08-05T19:47:19.180757910Z,-2.082955,-0.484826,9.718064,-0.304932,-0.264585,0.314785
2025-08-05T19:47:19.200627861Z,-2.054225,-0.538695,9.756371,-0.246875,-0.204531,0.329699
2025-08-05T19:47:19.220499113Z,-1.938106,-0.569820,9.885659,-0.247940,-0.155795,0.312655
2025-08-05T19:47:19.240388127Z,-1.812411,-0.673968,9.933543,-0.293214,-0.176967,0.282827
2025-08-05T19:47:19.260298130Z,-1.759738,-0.723049,9.919178,-0.306130,-0.272175,0.298806
2025-08-05T19:47:19.280120007Z,-1.636437,-0.641646,9.497798,-0.202800,-0.331563,0.300937
2025-08-05T19:47:19.300247408Z,-1.684321,-0.650026,9.898528,-0.148072,-0.331563,0.280697
2025-08-05T19:47:19.339918767Z,-1.774103,-0.562637,9.941624,-0.139683,-0.347010,0.292415
2025-08-05T19:47:19.359618872Z,-1.702277,-0.629675,9.970354,-0.119576,-0.350205,0.279632
2025-08-05T19:47:19.379453197Z,-1.687912,-0.791284,9.845855,-0.158058,-0.375372,0.277501
2025-08-05T19:47:19.399353200Z,-1.622072,-0.908600,9.611223,-0.184157,-0.351537,0.282827
2025-08-05T19:47:19.419261692Z,-1.526304,-0.907402,9.759664,-0.132758,-0.286423,0.275371
2025-08-05T19:47:19.439286176Z,-1.314417,-0.855927,9.903316,-0.104396,-0.298274,0.289219
2025-08-05T19:47:19.498685348Z,-1.077391,-0.980426,9.817124,0.050067,-0.328101,0.231695
2025-08-05T19:47:19.518582434Z,-1.100136,-0.967257,9.869798,0.032890,-0.349007,0.194411
2025-08-05T19:47:19.538439937Z,-1.096544,-0.932542,9.788394,-0.015846,-0.373242,0.154996
2025-08-05T19:47:19.558344783Z,-1.108515,-0.820014,9.711780,-0.065247,-0.356197,0.162453
2025-08-05T19:47:19.578206505Z,-0.986411,-0.667982,9.788394,-0.059255,-0.302801,0.179497
2025-08-05T19:47:19.598025882Z,-0.932542,-0.647632,9.893740,-0.035553,-0.292814,0.178432
2025-08-05T19:47:19.637783439Z,-0.985214,-0.792481,9.635165,-0.100002,-0.287621,0.198672
2025-08-05T19:47:19.657447242Z,-0.830788,-0.679953,9.659107,-0.149670,-0.256595,0.166714
2025-08-05T19:47:19.677517976Z,-0.812831,-0.648829,9.750087,-0.138751,-0.348874,0.165648
2025-08-05T19:47:19.697399072Z,-0.793678,-0.760159,9.548974,-0.181627,-0.363122,0.146474
2025-08-05T19:47:19.717256210Z,-0.767342,-0.684742,9.400534,-0.234491,-0.371111,0.166714
2025-08-05T19:47:19.737136161Z,-0.835576,-0.651223,9.649530,-0.230763,-0.379766,0.194411
2025-08-05T19:47:19.757014653Z,-0.867898,-0.858321,9.453206,-0.272574,-0.287754,0.186954
2025-08-05T19:47:19.796743200Z,-0.532710,-0.916979,9.568128,-0.231695,-0.276569,0.186954
2025-08-05T19:47:19.816594713Z,-0.511162,-1.045069,9.697414,-0.191082,-0.326370,0.193345
2025-08-05T19:47:19.836512580Z,-0.393846,-1.273715,9.616012,-0.186155,-0.363921,0.211455
2025-08-05T19:47:19.856356645Z,-0.165200,-1.406593,9.644742,-0.213186,-0.348075,0.189084
2025-08-05T19:47:19.876215242Z,0.037110,-1.395820,9.721356,-0.252467,-0.361124,0.200802
2025-08-05T19:47:19.896084463Z,0.160412,-1.365892,9.769240,-0.250603,-0.325704,0.166714
2025-08-05T19:47:19.916007539Z,0.244209,-1.417367,9.865008,-0.234491,-0.341550,0.145408
2025-08-05T19:47:19.955942651Z,0.055067,-1.598130,9.711780,-0.184424,-0.370179,0.110255
2025-08-05T19:47:19.975817653Z,0.027533,-1.672350,9.568128,-0.219977,-0.373908,0.105994
2025-08-05T19:47:19.995469685Z,-0.004788,-1.693898,9.654319,-0.252467,-0.378701,0.130495
2025-08-05T19:47:20.015380052Z,0.029928,-1.430536,9.903316,-0.187353,-0.350205,0.148604
2025-08-05T19:47:20.035415786Z,0.106542,-1.520318,9.764452,-0.067378,-0.295877,0.127299
2025-08-05T19:47:20.055093547Z,0.180762,-1.685518,9.639954,-0.033556,-0.326370,0.140082
2025-08-05T19:47:20.114671732Z,0.426168,-1.696292,9.457994,-0.192014,-0.358861,0.070840
2025-08-05T19:47:20.134528974Z,0.347159,-1.684321,9.687838,-0.167779,-0.359127,0.033556
2025-08-05T19:47:20.154451164Z,0.354342,-1.657985,9.730933,-0.188818,-0.412257,0.029295
2025-08-05T19:47:20.174277729Z,0.512359,-1.675941,9.438841,-0.205862,-0.428502,0.030360
2025-08-05T19:47:20.194350025Z,0.751779,-1.657985,9.276035,-0.193745,-0.476705,0.075101
2025-08-05T19:47:20.214266851Z,0.903811,-1.695095,9.295189,-0.231295,-0.466719,0.105994
2025-08-05T19:47:20.273614825Z,1.083376,-1.884237,9.267057,-0.062984,-0.443416,0.074036
2025-08-05T19:47:20.293535193Z,1.112107,-1.983596,9.386767,-0.076965,-0.479635,0.059122
2025-08-05T19:47:20.313396133Z,1.076194,-2.155979,9.147346,-0.206661,-0.435027,0.069775
2025-08-05T19:47:20.333233479Z,1.229423,-2.043451,9.314941,-0.263919,-0.295344,0.081493
2025-08-05T19:47:20.353122076Z,1.189918,-1.817199,9.745897,-0.206395,-0.254997,0.136886
2025-08-05T19:47:20.373031037Z,1.154005,-1.944092,9.698013,-0.063916,-0.182027,0.139017
2025-08-05T19:47:20.412796876Z,1.418565,-2.354697,9.238326,0.001598,-0.247674,0.096406
2025-08-05T19:47:20.432572242Z,1.625663,-2.351106,8.917503,-0.060054,-0.271642,0.053796
2025-08-05T19:47:20.452493391Z,1.731008,-2.376245,8.687660,-0.144476,-0.271243,0.048469
2025-08-05T19:47:20.472312976Z,1.906982,-2.134431,9.027637,-0.194011,-0.244877,0.054861
2025-08-05T19:47:20.492408711Z,1.977611,-2.003947,9.046790,-0.143677,-0.173372,0.038882
2025-08-05T19:47:20.512118503Z,2.006341,-2.191892,8.936657,-0.117445,-0.103730,0.044208
2025-08-05T19:47:20.571691427Z,1.921347,-2.499547,9.396344,-0.070707,-0.180695,-0.028229
2025-08-05T19:47:20.591556899Z,1.902193,-2.677915,9.511266,-0.092278,-0.176168,-0.099602
2025-08-05T19:47:20.611438464Z,1.966837,-2.619257,9.511266,-0.107325,-0.203465,-0.118777
2025-08-05T19:47:20.631304925Z,1.653196,-2.537854,9.543288,-0.077631,-0.220643,-0.081493
2025-08-05T19:47:20.651189667Z,1.497573,-2.773683,9.404425,-0.040081,-0.149803,-0.067644
2025-08-05T19:47:20.671054409Z,1.663970,-2.948459,9.342175,-0.045407,-0.080294,-0.047404
2025-08-05T19:47:20.710772331Z,2.051831,-2.711433,9.500193,-0.111187,-0.117712,-0.071905
2025-08-05T19:47:20.730655303Z,2.086547,-2.748544,9.437943,-0.104529,-0.141414,-0.079362
2025-08-05T19:47:20.750536451Z,2.309207,-2.758120,9.442732,-0.062185,-0.090015,-0.114516
2025-08-05T19:47:20.770380308Z,2.413355,-2.918532,9.461885,-0.054195,-0.081359,-0.156061
2025-08-05T19:47:20.790268956Z,2.567781,-2.815581,9.342175,-0.064448,-0.148471,-0.250870
2025-08-05T19:47:20.810129375Z,2.515109,-2.764106,9.107543,-0.088151,-0.290018,-0.321177
2025-08-05T19:47:20.830000420Z,2.343924,-2.653973,8.848969,-0.139550,-0.365252,-0.403202
2025-08-05T19:47:20.869736310Z,2.042254,-2.160767,8.403648,-0.206528,-0.295744,-0.362722
2025-08-05T19:47:20.889597511Z,1.985990,-2.206257,8.307879,-0.168977,-0.176434,-0.290284
2025-08-05T19:47:20.909514389Z,2.086547,-2.330755,8.212111,-0.159656,-0.033689,-0.217846
2025-08-05T19:47:20.929337256Z,2.343924,-2.388216,8.221688,-0.135022,0.085887,-0.178432
2025-08-05T19:47:20.949204810Z,2.543839,-2.391808,8.250419,-0.158857,0.108923,-0.161387
2025-08-05T19:47:20.969134397Z,2.590526,-2.573767,8.245630,-0.193478,0.048603,-0.154996
2025-08-05T19:47:21.028716852Z,2.658761,-3.366248,7.910442,-0.074169,0.134756,-0.151800
2025-08-05T19:47:21.048617689Z,2.555810,-3.877410,7.608773,0.028895,0.149803,-0.136886
2025-08-05T19:47:21.068443264Z,2.364274,-4.369418,7.350199,0.054195,0.125967,-0.102798
2025-08-05T19:47:21.088334725Z,2.062605,-4.783615,6.943185,0.118910,0.083357,-0.074036
2025-08-05T19:47:21.108160873Z,1.754950,-5.250484,6.320693,0.224504,-0.025433,0.028229
2025-08-05T19:47:21.128086762Z,1.438915,-5.953183,5.276821,0.321044,0.042611,0.102798
2025-08-05T19:47:21.187704374Z,0.968455,-5.944803,1.853112,0.425173,0.444215,0.370179
2025-08-05T19:47:21.207593804Z,0.422577,-5.436035,1.331176,0.087485,0.237154,0.456465
2025-08-05T19:47:21.227609120Z,0.300472,-5.306748,1.561020,-0.314919,0.202666,0.453270
2025-08-05T19:47:21.247339069Z,0.645237,-5.334281,2.973598,-0.744220,0.313454,0.405333
2025-08-05T19:47:21.267148602Z,0.979228,-4.934450,4.314352,-1.111203,0.227167,0.428769
2025-08-05T19:47:21.287050220Z,1.158794,-4.484340,5.669470,-1.159939,0.257394,0.357396
2025-08-05T19:47:21.326766319Z,1.458069,-4.661511,7.977480,-0.868722,0.204531,0.041013
2025-08-05T19:47:21.346645592Z,1.474828,-4.984728,8.336611,-0.756071,0.359660,-0.148604
2025-08-05T19:47:21.366496272Z,1.504756,-4.395754,8.441956,-0.794687,0.529835,-0.172040
2025-08-05T19:47:21.386358201Z,1.701080,-3.943250,9.198523,-0.638492,0.947286,-0.337156
2025-08-05T19:47:21.406264611Z,1.577779,-3.585317,9.715671,-0.703473,1.004011,-0.372310
2025-08-05T19:47:21.426123311Z,1.288081,-3.159149,9.509769,-0.579503,1.119725,-0.442617
2025-08-05T19:47:21.446017585Z,1.533486,-3.128025,9.744401,-0.202933,1.469398,-0.733434
2025-08-05T19:47:21.485728736Z,1.168370,-3.051410,11.051635,-0.433829,1.559945,-0.867657
2025-08-05T19:47:21.505631030Z,0.750582,-3.365051,10.663774,-0.554203,1.648895,-1.068992
2025-08-05T19:47:21.525477908Z,-0.020351,-4.090494,12.047623,-0.411192,1.276319,-1.089232
2025-08-05T19:47:21.545580829Z,-0.223858,-3.469198,12.588713,-0.422643,1.295094,-1.124386
2025-08-05T19:47:21.565233434Z,-0.357933,-2.517503,12.186486,-0.115448,1.398824,-1.106276
2025-08-05T19:47:21.585059217Z,-0.760159,-2.549825,10.946290,0.194411,1.484178,-1.144626
2025-08-05T19:47:21.644684173Z,-1.747767,-3.454833,12.248735,0.019707,0.627440,-1.105211
2025-08-05T19:47:21.664558030Z,-2.167950,-3.523068,12.622231,0.328367,0.263653,-1.018925
2025-08-05T19:47:21.684478710Z,-2.446874,-4.144363,12.421119,0.489489,0.283626,-0.945421
2025-08-05T19:47:21.704293764Z,-1.708263,-3.679888,11.473015,0.527039,0.627041,-0.885767
2025-08-05T19:47:21.724399134Z,-1.398214,-3.296816,11.271901,0.812796,0.623445,-0.839960
2025-08-05T19:47:21.744055957Z,-1.884237,-3.514688,10.912771,0.987366,0.353401,-0.812263
2025-08-05T19:47:21.783800129Z,-1.638831,-2.527080,13.905523,0.238086,0.155795,-0.665257
2025-08-05T19:47:21.803668101Z,-2.108095,-2.579752,10.615891,0.055394,0.180828,-0.287089
2025-08-05T19:47:21.823532843Z,-1.759738,-3.499126,10.793061,0.247674,0.432497,-0.234891
2025-08-05T19:47:21.863282067Z,-0.761356,-3.002329,10.553641,0.300271,0.478303,-0.125168
2025-08-05T19:47:21.883159257Z,-0.806846,-2.942474,9.959879,0.433163,0.323707,-0.137952
2025-08-05T19:47:21.903070510Z,-0.927753,-3.211822,9.782708,0.399208,0.156594,-0.110255
2025-08-05T19:47:21.962603903Z,-0.932542,-2.907758,9.121908,0.335558,0.118910,-0.042078
2025-08-05T19:47:21.982492187Z,-0.823605,-3.150769,9.117120,0.180562,0.135821,-0.059122
2025-08-05T19:47:22.002371200Z,-0.751779,-3.040636,9.375694,0.009055,0.009854,-0.011185
2025-08-05T19:47:22.022231775Z,-0.872687,-2.893393,9.370906,0.031425,-0.002929,-0.019707
2025-08-05T19:47:22.042104799Z,-1.144428,-3.019088,9.184157,0.056992,0.030360,0.019707
2025-08-05T19:47:22.101703973Z,-0.810437,-3.151967,9.255983,0.106926,0.211854,0.065514
2025-08-05T19:47:22.121588820Z,-0.863110,-3.363853,9.227253,0.044342,0.157659,0.044208
2025-08-05T19:47:22.141517938Z,-0.951695,-3.055001,9.332599,0.038616,0.137552,0.001598
2025-08-05T19:47:22.161342679Z,-1.049857,-2.802413,9.442732,0.123038,0.076300,0.007989
2025-08-05T19:47:22.181178619Z,-1.210269,-2.838326,9.442732,0.265117,0.040347,-0.010120
2025-08-05T19:47:22.201080445Z,-1.364695,-3.029862,9.284714,0.322375,0.067777,-0.021838
2025-08-05T19:47:22.240808679Z,-1.319205,-2.889802,9.552865,0.345145,0.186954,0.026099
2025-08-05T19:47:22.260683213Z,-1.250970,-2.877831,9.624691,0.475640,0.280963,0.023968
2025-08-05T19:47:22.280514517Z,-1.256956,-3.068170,9.672575,0.571647,0.338754,0.014381
2025-08-05T19:47:22.300595928Z,-1.159991,-2.985569,10.060435,0.715857,0.358195,0.009055
2025-08-05T19:47:22.320493327Z,-0.970849,-3.003526,10.247183,0.885633,0.358461,-0.014381
2025-08-05T19:47:22.340167286Z,-1.067814,-3.205836,10.180145,0.996155,0.377103,-0.061253
2025-08-05T19:47:22.360003434Z,-1.137246,-3.129222,9.955091,0.987632,0.424241,-0.076166
2025-08-05T19:47:22.399805836Z,-1.464054,-2.172738,9.605537,0.967392,0.596681,-0.029295
2025-08-05T19:47:22.419639015Z,-1.752556,-2.002750,9.433155,1.040230,0.785898,-0.023968
2025-08-05T19:47:22.439536310Z,-1.648408,-1.738190,9.490616,1.037966,0.882438,-0.062318
2025-08-05T19:47:22.459374698Z,-1.600524,-1.678335,9.658210,0.959669,0.722116,-0.102798
2025-08-05T19:47:22.479251731Z,-1.868674,-1.388637,9.749189,0.856871,0.438090,-0.129430
2025-08-05T19:47:22.499140536Z,-2.044648,-1.191115,9.730036,0.787896,0.225836,-0.179497
2025-08-05T19:47:22.558724034Z,-2.051831,-1.023521,10.170568,0.726909,0.209457,-0.278566
2025-08-05T19:47:22.578577421Z,-1.924938,-0.784101,10.137050,0.727042,0.273107,-0.326503
2025-08-05T19:47:22.598494247Z,-1.818396,-0.465672,10.275913,0.766990,0.191481,-0.345678
2025-08-05T19:47:22.618316125Z,-1.880645,-0.410606,10.079589,0.802277,0.063916,-0.395745
2025-08-05T19:47:22.638211909Z,-1.978808,-0.599748,9.797073,0.823182,-0.000533,-0.541686
2025-08-05T19:47:22.658055296Z,-2.139219,-0.333991,9.782708,0.719053,-0.151134,-0.561926
2025-08-05T19:47:22.697809781Z,-2.153584,0.135272,9.706094,0.732502,-0.132226,-0.557665
2025-08-05T19:47:22.717710721Z,-2.122460,0.081403,9.629479,0.792423,-0.025433,-0.601341
2025-08-05T19:47:22.737639318Z,-2.164358,0.250194,9.208099,0.954609,-0.048336,-0.589623
2025-08-05T19:47:22.757485467Z,-2.169147,0.438139,9.787497,0.832903,-0.033556,-0.599211
2025-08-05T19:47:22.777282396Z,-2.134431,0.557849,9.777920,0.815193,-0.113983,-0.591754
2025-08-05T19:47:22.797350057Z,-2.257732,0.690727,9.998186,0.841558,-0.186687,-0.592819
2025-08-05T19:47:22.817021515Z,-2.389413,0.772130,10.017340,0.839294,-0.176567,-0.630103
2025-08-05T19:47:22.856750896Z,-2.401384,1.328782,9.538500,0.865260,-0.062851,-0.604537
2025-08-05T19:47:22.876623659Z,-2.378639,1.550246,9.404425,0.933570,-0.029162,-0.587493
2025-08-05T19:47:22.896503557Z,-2.336741,1.523909,9.481039,1.020522,-0.044475,-0.606668
2025-08-05T19:47:22.916395487Z,-2.288857,1.482011,9.495404,1.038632,-0.101067,-0.664192
2025-08-05T19:47:22.936266375Z,-2.378639,1.584962,9.414001,0.902811,-0.294812,-0.613059
2025-08-05T19:47:22.956108877Z,-2.701857,1.824382,9.385271,0.768321,-0.411325,-0.577905
2025-08-05T19:47:23.015734979Z,-2.564190,2.600103,9.370906,0.551940,-0.112518,-0.485228
2025-08-05T19:47:23.035618576Z,-2.491167,2.876633,9.677363,0.643952,-0.108790,-0.461792
2025-08-05T19:47:23.055476391Z,-2.467225,2.918532,9.586384,0.748348,-0.197074,-0.437291
2025-08-05T19:47:23.075341133Z,-2.477999,2.670732,9.370906,0.760199,-0.227567,-0.449009
2025-08-05T19:47:23.095241553Z,-2.327164,2.738967,9.227253,0.706270,-0.227034,-0.503337
2025-08-05T19:47:23.115086399Z,-2.442086,2.980781,8.987833,0.639025,-0.309193,-0.479901
2025-08-05T19:47:23.174693646Z,-2.191892,2.913743,8.829816,0.750878,-0.140482,-0.507598
2025-08-05T19:47:23.194559013Z,-2.379837,3.185485,9.006987,0.799081,-0.143811,-0.526773
2025-08-05T19:47:23.214478443Z,-2.537854,3.154361,8.585608,0.826911,-0.155795,-0.565122
2025-08-05T19:47:23.234536677Z,-2.506729,3.175909,8.441956,0.739160,-0.200935,-0.564057
2025-08-05T19:47:23.254188709Z,-2.549825,3.515885,8.317456,0.638492,-0.268580,-0.524642
2025-08-05T19:47:23.274031367Z,-2.615665,3.470395,8.317456,0.588558,-0.295611,-0.506533
2025-08-05T19:47:23.313774498Z,-2.492364,4.121618,8.384495,0.631568,-0.182560,-0.509729
2025-08-05T19:47:23.333668928Z,-2.313996,3.974375,8.173804,0.663526,-0.220376,-0.503337
2025-08-05T19:47:23.353524555Z,-1.942895,3.758897,8.034941,0.541420,-0.242214,-0.531034
2025-08-05T19:47:23.373616123Z,-2.044648,4.134786,8.336611,0.468316,-0.234491,-0.552339
2025-08-05T19:47:23.393262269Z,-2.132037,4.504691,8.461109,0.564856,-0.284559,-0.538491
2025-08-05T19:47:23.413148521Z,-2.290054,4.180276,8.159439,0.672847,-0.325172,-0.572579
2025-08-05T19:47:23.433007066Z,-2.329558,4.021062,7.824251,0.665257,-0.338487,-0.589623
2025-08-05T19:47:23.472731029Z,-2.555810,4.276044,7.939173,0.442351,-0.176168,-0.545948
2025-08-05T19:47:23.492616813Z,-2.558204,4.456807,7.896077,0.487092,-0.064448,-0.549143
2025-08-05T19:47:23.532374475Z,-2.501941,4.569334,7.958326,0.719186,-0.179231,-0.505468
2025-08-05T19:47:23.552233175Z,-2.784456,4.584896,7.584831,0.605869,-0.138617,-0.515055
2025-08-05T19:47:23.572076823Z,-2.789245,4.668694,7.513005,0.616788,-0.107059,-0.512924
2025-08-05T19:47:23.631748446Z,-2.537854,5.085284,7.785944,0.466186,0.049135,-0.533164
2025-08-05T19:47:23.651595480Z,-2.525883,5.044583,7.790732,0.457131,0.035819,-0.569383
2025-08-05T19:47:23.671470066Z,-2.841918,5.146337,7.671022,0.515321,-0.000133,-0.583232
2025-08-05T19:47:23.691336892Z,-3.050213,4.839879,7.292738,0.569383,0.048070,-0.622647
2025-08-05T19:47:23.711241582Z,-3.147178,4.839879,7.086837,0.616122,0.085088,-0.665257
2025-08-05T19:47:23.731086584Z,-3.410540,4.914099,6.809110,0.691090,0.046206,-0.670583
2025-08-05T19:47:23.790872532Z,-3.836708,5.027823,6.248867,0.851678,0.324373,-0.594950
2025-08-05T19:47:23.810556386Z,-3.867833,5.133168,6.263232,0.743021,0.525708,-0.610929
2025-08-05T19:47:23.830650506Z,-4.064157,5.570110,6.435614,0.766324,0.602806,-0.610929
2025-08-05T19:47:23.850274569Z,-4.647145,5.445612,5.683835,0.936100,0.621448,-0.603472
2025-08-05T19:47:23.870164155Z,-5.110424,5.157111,5.094861,1.042094,0.653273,-0.609863
2025-08-05T19:47:23.890026241Z,-5.706580,4.989516,4.472369,1.043825,0.608798,-0.508663
2025-08-05T19:47:23.929807184Z,-7.802703,4.480749,3.246537,0.626508,0.627174,-0.290284
2025-08-05T19:47:23.949627446Z,-7.784747,4.946421,2.753332,0.185356,0.566454,-0.037817
2025-08-05T19:47:23.969517814Z,-8.061277,4.942830,2.820370,-0.187753,0.350072,0.261522
2025-08-05T19:47:23.989368754Z,-8.067263,5.103241,2.987964,-0.471246,0.176035,0.510794
2025-08-05T19:47:24.009272142Z,-7.881712,5.367800,3.040636,-0.664991,0.156061,0.748348
2025-08-05T19:47:24.029119228Z,-7.603985,5.109226,3.045424,-0.754872,0.281496,0.879375
2025-08-05T19:47:24.069012307Z,-7.292738,4.945224,3.624821,-0.880440,0.278034,1.094558
2025-08-05T19:47:24.088737517Z,-6.727707,5.151125,3.174711,-0.999883,0.315052,1.192562
2025-08-05T19:47:24.108582415Z,-6.430826,5.195418,3.136404,-1.057807,0.261256,1.244760
2025-08-05T19:47:24.128677056Z,-6.612785,4.898537,3.490746,-1.375388,0.158458,1.537708
2025-08-05T19:47:24.148310129Z,-6.102820,4.252102,2.815581,-1.379117,0.536493,1.548361
2025-08-05T19:47:24.168178673Z,-5.238513,4.542998,3.615245,-1.539039,0.888430,1.486575
2025-08-05T19:47:24.188092322Z,-4.241328,5.117606,4.094085,-1.658482,0.937432,1.584579
2025-08-05T19:47:24.247682538Z,-3.223793,4.776433,5.664681,-1.943973,1.142495,1.486575
2025-08-05T19:47:24.267581395Z,-2.822764,4.526238,5.717354,-1.873532,1.086968,1.409876
2025-08-05T19:47:24.287444627Z,-2.989161,3.387795,5.923255,-1.889378,0.953810,1.433312
2025-08-05T19:47:24.307347963Z,-2.516306,2.582147,7.019799,-1.981390,1.240766,1.454617
2025-08-05T19:47:24.327213122Z,-2.175132,2.705448,7.790732,-1.917474,1.613342,1.289502
2025-08-05T19:47:24.347033176Z,-1.756147,3.143587,7.829040,-1.641971,1.626924,0.996554
2025-08-05T19:47:24.386784692Z,-2.711433,1.689109,9.121908,-1.913080,1.073653,0.992293
2025-08-05T19:47:24.406644642Z,-2.642002,1.273715,10.002975,-1.890310,1.316533,0.829308
2025-08-05T19:47:24.426531572Z,-2.231396,1.507150,11.559206,-1.840509,1.371394,0.631169
2025-08-05T19:47:24.446400481Z,-2.650381,1.981202,12.253524,-1.616804,1.092827,0.538491
2025-08-05T19:47:24.466263973Z,-3.878607,1.444901,12.574347,-1.062734,0.790159,0.392550
2025-08-05T19:47:24.486137830Z,-4.400543,-0.011971,12.234370,-1.078047,0.648479,0.292415
2025-08-05T19:47:24.545737733Z,-4.705803,1.295263,14.288596,-1.173787,-0.078164,0.025034
2025-08-05T19:47:24.565641434Z,-4.632780,1.194707,13.168109,-0.687761,-0.095607,-0.063383
2025-08-05T19:47:24.585476020Z,-4.489128,0.299275,12.215217,-0.403202,-0.131826,-0.160322
2025-08-05T19:47:24.605353991Z,-4.441244,0.112527,11.650186,-0.535694,-0.239684,-0.137952
2025-08-05T19:47:24.625290453Z,-4.526238,0.958878,11.219229,-0.610130,-0.369380,-0.156061
2025-08-05T19:47:24.645115663Z,-4.721366,1.221043,10.611102,-0.448875,-0.450074,-0.175236
2025-08-05T19:47:24.665002906Z,-4.886566,1.209072,10.400413,-0.317049,-0.470181,-0.189084
2025-08-05T19:47:24.704691608Z,-4.926070,1.077391,9.591172,-0.250870,-0.408928,-0.113451
2025-08-05T19:47:24.724577653Z,-4.472369,1.025915,9.414001,-0.215450,-0.243013,-0.107059
2025-08-05T19:47:24.744431614Z,-4.129998,1.201889,9.409213,-0.231695,-0.243812,-0.081493
2025-08-05T19:47:24.764321564Z,-4.153940,1.103727,9.184157,-0.162586,-0.270444,-0.109190
2025-08-05T19:47:24.784231307Z,-4.260482,1.271321,9.591172,-0.074568,-0.361923,-0.126234
2025-08-05T19:47:24.804080997Z,-4.210204,1.212663,9.083601,-0.115182,-0.312122,-0.086819
2025-08-05T19:47:24.843799960Z,-3.689465,1.043872,8.543409,-0.032757,-0.186954,-0.161387
2025-08-05T19:47:24.863681421Z,-3.709816,0.908600,8.840290,-0.047138,-0.205463,-0.191215
2025-08-05T19:47:24.883737155Z,-3.475184,1.131260,9.122807,-0.120641,-0.401471,-0.230630
2025-08-05T19:47:24.903604449Z,-3.642778,1.272518,8.849867,-0.174171,-0.632367,-0.191215
2025-08-05T19:47:24.923290596Z,-3.766079,1.254562,8.323143,-0.136753,-0.590555,-0.180562
2025-08-05T19:47:24.943371226Z,-3.623624,1.017536,8.232163,-0.099203,-0.432763,-0.202933
2025-08-05T19:47:24.963034664Z,-2.972401,0.918176,8.576928,-0.188418,-0.443416,-0.271110
2025-08-05T19:47:25.022669620Z,-2.804807,0.877475,9.027039,-0.440353,-1.757019,-0.340352
2025-08-05T19:47:25.042493893Z,-1.874660,0.441730,9.304766,-0.635563,-2.194043,-0.440486
2025-08-05T19:47:25.062383010Z,-1.595735,0.489614,9.055769,-0.946220,-2.795518,-0.400006
2025-08-05T19:47:25.082260982Z,-2.357092,0.438139,8.500314,-0.975515,-2.612692,-0.304133
2025-08-05T19:47:25.102312028Z,-2.621651,0.502782,8.514679,-0.685364,-1.576990,-0.323307
2025-08-05T19:47:25.161734065Z,-0.891840,-0.219069,9.716568,-0.323574,-0.536627,-0.356331
2025-08-05T19:47:25.181565942Z,-1.065420,-0.180762,9.888951,-0.250470,-0.520648,-0.330764
2025-08-05T19:47:25.201658187Z,-0.976834,-0.306458,9.635165,-0.133957,-0.414121,-0.364853
2025-08-05T19:47:25.221328916Z,-1.078588,-0.549469,9.654319,-0.124236,-0.337822,-0.325438
2025-08-05T19:47:25.241194023Z,-0.931344,-0.584185,10.214562,-0.165116,-0.221175,-0.299872
2025-08-05T19:47:25.261064286Z,-0.630872,-0.535104,10.133160,-0.194943,-0.130362,-0.346743
2025-08-05T19:47:25.320680544Z,-0.628478,-0.592565,9.860220,0.035287,-0.233026,-0.212520
2025-08-05T19:47:25.340557213Z,-0.679953,-0.561440,9.726145,-0.030759,-0.114383,-0.131560
2025-08-05T19:47:25.360610603Z,-0.410606,-0.737414,9.472360,-0.076033,-0.059255,-0.135821
2025-08-05T19:47:25.380299562Z,-0.598550,-0.664391,9.390957,-0.131960,-0.059655,-0.074036
2025-08-05T19:47:25.400155554Z,0.325611,1.783680,19.709967,0.568718,-2.273006,0.638626
2025-08-05T19:47:25.420045714Z,-2.112883,-2.157176,4.257789,-0.081626,-0.160455,-0.226369
2025-08-05T19:47:25.459815563Z,0.168791,-0.159214,9.481936,0.079362,-0.010519,-0.093211
2025-08-05T19:47:25.479682128Z,-0.051475,-0.105345,9.649530,-0.027164,-0.009454,-0.021838
2025-08-05T19:47:25.499525568Z,-0.141258,-0.168791,9.888951,-0.041678,-0.006924,-0.019707
2025-08-05T19:47:25.519424789Z,0.113725,-0.275333,9.716568,-0.028629,-0.023036,-0.016512
2025-08-05T19:47:25.539288959Z,-0.100556,-0.263362,9.750087,-0.024102,-0.007324,-0.012251
2025-08-05T19:47:25.559128023Z,-0.356736,-0.338780,9.879375,0.015713,-0.008256,-0.011185
2025-08-05T19:47:25.579015214Z,-0.047884,-0.011971,9.802759,0.020107,-0.011052,-0.011185
2025-08-05T19:47:25.618774490Z,-0.166397,-0.272939,9.706991,-0.027963,0.001465,-0.016512
2025-08-05T19:47:25.638637774Z,-0.120907,-0.118513,9.836278,-0.004661,-0.009454,-0.015446
2025-08-05T19:47:25.658492203Z,-0.044293,-0.216675,9.740510,0.005859,-0.010253,-0.014381
2025-08-05T19:47:25.678386269Z,-0.074220,-0.284910,9.678261,0.000932,-0.005726,-0.014381
2025-08-05T19:47:25.698474399Z,-0.086191,-0.252588,9.769240,-0.005726,-0.008256,-0.014381
2025-08-05T19:47:25.718094295Z,-0.065841,-0.214281,9.711780,-0.005859,-0.008922,-0.014381
2025-08-05T19:47:25.777701282Z,-0.080206,-0.257377,9.716568,-0.003728,-0.008922,-0.014381
2025-08-05T19:47:25.797568784Z,-0.073023,-0.232238,9.735722,-0.003329,-0.008522,-0.015446
2025-08-05T19:47:25.817468214Z,-0.057461,-0.231040,9.730933,-0.002264,-0.007989,-0.014381
2025-08-05T19:47:25.837314414Z,-0.062249,-0.223858,9.740510,-0.001198,-0.007989,-0.015446
2025-08-05T19:47:25.857155771Z,-0.064643,-0.223858,9.730933,-0.002530,-0.007590,-0.014381
2025-08-05T19:47:25.877056399Z,-0.084994,-0.231040,9.716568,-0.002131,-0.007590,-0.014381
2025-08-05T19:47:25.916793331Z,-0.058658,-0.231040,9.730933,-0.001065,-0.007590,-0.014381
2025-08-05T19:47:25.936660938Z,-0.063446,-0.216675,9.730933,-0.002264,-0.007989,-0.014381
2025-08-05T19:47:25.956512659Z,-0.076614,-0.231040,9.740510,-0.001332,-0.007856,-0.014381
2025-08-05T19:47:25.976412662Z,-0.086191,-0.240617,9.726145,-0.002663,-0.007989,-0.014381
2025-08-05T19:47:25.996267925Z,-0.075417,-0.240617,9.726145,-0.002530,-0.007856,-0.014381
2025-08-05T19:47:26.016207564Z,-0.062249,-0.226252,9.721356,-0.001065,-0.008256,-0.014381
2025-08-05T19:47:26.075774759Z,-0.071826,-0.244209,9.702203,-0.001198,-0.008389,-0.015446
2025-08-05T19:47:26.095669241Z,-0.083797,-0.233435,9.711780,-0.000666,-0.008522,-0.014381
2025-08-05T19:47:26.115516066Z,-0.075417,-0.233435,9.730933,-0.000799,-0.008788,-0.014381
2025-08-05T19:47:26.135342474Z,-0.083797,-0.231040,9.702203,-0.001997,-0.008655,-0.014381
2025-08-05T19:47:26.155204196Z,-0.090980,-0.226252,9.668684,-0.000000,-0.007723,-0.014381
2025-08-05T19:47:26.175154824Z,-0.101754,-0.243011,9.702203,-0.001198,-0.009055,-0.015446
2025-08-05T19:47:26.234748321Z,-0.077812,-0.231040,9.711780,-0.001731,-0.009055,-0.014381
2025-08-05T19:47:26.254578844Z,-0.089783,-0.247800,9.735722,-0.002663,-0.009321,-0.014381
2025-08-05T19:47:26.274438222Z,-0.093374,-0.238223,9.716568,-0.001065,-0.009454,-0.015446
2025-08-05T19:47:26.294335464Z,-0.083797,-0.219069,9.716568,-0.001864,-0.009454,-0.015446
2025-08-05T19:47:26.314203748Z,-0.061052,-0.205901,9.764452,-0.001198,-0.007856,-0.014381
2025-08-05T19:47:26.334064532Z,-0.041899,-0.204704,9.745298,-0.003595,-0.007590,-0.013316
2025-08-05T19:47:26.393681884Z,-0.088585,-0.266953,9.730933,-0.002663,-0.007590,-0.014381
2025-08-05T19:47:26.413593501Z,-0.068235,-0.204704,9.855432,-0.004794,-0.009188,-0.015446
2025-08-05T19:47:26.433398920Z,-0.055067,-0.207098,9.726145,-0.002264,-0.007191,-0.014381
2025-08-05T19:47:26.453281162Z,-0.102951,-0.233435,9.721356,-0.000666,-0.008256,-0.014381
2025-08-05T19:47:26.473380126Z,-0.052672,-0.246603,9.697414,-0.002131,-0.007856,-0.014381
2025-08-05T19:47:26.493218670Z,-0.074220,-0.256180,9.721356,-0.003862,-0.008256,-0.014381
