timestamp,accel_x,accel_y,accel_z,gyro_x,gyro_y,gyro_z
2025-08-05T19:45:20.318462428Z,-0.037110,-0.221464,9.592968,-0.001198,-0.009454,-0.015446
2025-08-05T19:45:20.338279687Z,-0.063446,-0.205901,9.664794,0.002397,-0.007057,-0.014381
2025-08-05T19:45:20.358126477Z,-0.033519,-0.235829,9.722255,0.001864,-0.008522,-0.015446
2025-08-05T19:45:20.378012330Z,0.011971,-0.244209,9.640852,-0.001997,-0.009587,-0.015446
2025-08-05T19:45:20.417790702Z,-0.037110,-0.231040,9.727043,-0.001198,-0.006924,-0.014381
2025-08-05T19:45:20.437622128Z,-0.086191,-0.234632,9.693524,-0.004794,-0.008922,-0.014381
2025-08-05T19:45:20.457462095Z,-0.027533,-0.211887,9.722554,-0.003063,-0.008256,-0.014914
2025-08-05T19:45:20.477335968Z,-0.022745,-0.215478,9.722554,-0.001465,-0.008123,-0.013848
2025-08-05T19:45:20.497209946Z,-0.004788,-0.202310,9.708189,-0.002796,-0.007989,-0.013848
2025-08-05T19:45:20.517084913Z,-0.027533,-0.192733,9.693824,-0.001864,-0.008922,-0.013848
2025-08-05T19:45:20.576896275Z,-0.025139,-0.235829,9.703401,-0.001198,-0.007989,-0.013848
2025-08-05T19:45:20.596560199Z,-0.005986,-0.223858,9.698612,-0.001332,-0.008389,-0.014914
2025-08-05T19:45:20.616425948Z,-0.001197,-0.197522,9.712977,-0.001997,-0.008256,-0.013848
2025-08-05T19:45:20.636309457Z,-0.033519,-0.203507,9.712977,-0.001465,-0.007856,-0.013848
2025-08-05T19:45:20.656199424Z,-0.025139,-0.199916,9.722554,-0.002131,-0.007856,-0.013848
2025-08-05T19:45:20.676026162Z,-0.050278,-0.215478,9.717766,-0.002264,-0.008256,-0.013848
2025-08-05T19:45:20.715822764Z,-0.025139,-0.219069,9.717766,-0.002264,-0.008123,-0.013848
2025-08-05T19:45:20.735693721Z,-0.009577,-0.213084,9.717766,-0.001731,-0.007590,-0.013848
2025-08-05T19:45:20.755523636Z,-0.025139,-0.199916,9.708189,-0.002131,-0.008123,-0.013848
2025-08-05T19:45:20.775471833Z,-0.043096,-0.215478,9.703401,-0.001598,-0.008522,-0.014914
2025-08-05T19:45:20.795264351Z,-0.033519,-0.215478,9.717766,-0.002796,-0.008389,-0.014914
2025-08-05T19:45:20.815143798Z,-0.032322,-0.216675,9.712977,-0.001997,-0.009321,-0.014914
2025-08-05T19:45:20.835052672Z,-0.015562,-0.202310,9.712977,-0.002530,-0.008389,-0.013848
2025-08-05T19:45:20.874760575Z,-0.041899,-0.213084,9.708189,-0.002663,-0.008389,-0.013848
2025-08-05T19:45:20.894643667Z,-0.046687,-0.228646,9.698612,-0.002530,-0.008389,-0.014914
2025-08-05T19:45:20.914500510Z,-0.055067,-0.227449,9.712977,-0.003063,-0.009587,-0.014914
2025-08-05T19:45:20.934363758Z,-0.044293,-0.220267,9.708189,-0.003063,-0.009055,-0.014914
2025-08-05T19:45:20.954224819Z,-0.022745,-0.214281,9.703401,-0.001997,-0.008788,-0.013848
2025-08-05T19:45:20.974127026Z,-0.026336,-0.207098,9.722554,-0.001997,-0.008788,-0.013848
2025-08-05T19:45:21.033752449Z,-0.051475,-0.209493,9.703401,-0.003196,-0.007989,-0.013848
2025-08-05T19:45:21.053581062Z,-0.027533,-0.214281,9.703401,-0.003462,-0.007723,-0.013848
2025-08-05T19:45:21.073447696Z,-0.031125,-0.205901,9.717766,-0.003063,-0.008922,-0.013848
2025-08-05T19:45:21.093519800Z,-0.032322,-0.228646,9.717766,-0.002929,-0.009321,-0.013848
2025-08-05T19:45:21.113219558Z,-0.033519,-0.216675,9.717766,-0.002264,-0.008522,-0.014914
2025-08-05T19:45:21.133094057Z,-0.025139,-0.210690,9.712977,-0.003063,-0.009587,-0.014914
2025-08-05T19:45:21.172788782Z,-0.070629,-0.213084,9.660305,-0.001065,-0.012384,-0.013848
2025-08-05T19:45:21.192698542Z,-0.011971,-0.258574,9.703401,-0.009188,-0.009987,-0.014914
2025-08-05T19:45:21.212579395Z,-0.022745,-0.228646,9.722554,-0.009454,-0.010653,-0.014914
2025-08-05T19:45:21.252282714Z,0.037110,-0.702698,9.286809,0.045007,-0.019042,-0.010653
2025-08-05T19:45:21.272364454Z,-0.032322,-0.663194,9.540594,-0.002929,-0.005193,-0.014914
2025-08-05T19:45:21.292033534Z,-0.038307,-0.313640,9.717766,-0.034488,0.000266,-0.015979
2025-08-05T19:45:21.351782448Z,-0.041899,-0.333991,9.665093,0.006924,-0.009854,-0.012783
2025-08-05T19:45:21.371499029Z,-0.062249,-0.183156,9.746496,-0.012251,-0.008389,-0.013848
2025-08-05T19:45:21.391400923Z,-0.049081,-0.116119,9.770438,-0.014781,-0.007989,-0.013848
2025-08-05T19:45:21.411620269Z,0.084994,0.037110,9.717766,-0.079628,-0.004927,-0.011718
2025-08-05T19:45:21.431143202Z,0.113725,-0.112527,9.598055,-0.003728,-0.009321,-0.013848
2025-08-05T19:45:21.451031190Z,-0.038307,-0.017957,9.918879,-0.006791,-0.006125,-0.017044
2025-08-05T19:45:21.490742322Z,0.046687,-0.284910,9.712977,0.010386,0.003862,-0.004261
2025-08-05T19:45:21.510700051Z,-0.269348,-0.253785,9.789592,-0.034222,0.004394,0.079895
2025-08-05T19:45:21.530559341Z,-0.221464,-0.262165,10.067319,-0.150202,0.031825,-0.004261
2025-08-05T19:45:21.550411548Z,-0.083797,-0.169988,11.159075,-0.568451,0.067777,-0.010653
2025-08-05T19:45:21.570265056Z,-0.197522,-0.481235,10.469544,-1.091229,0.502405,-0.014914
2025-08-05T19:45:21.590139555Z,-0.328006,-0.174777,10.139145,-0.869521,1.006008,-0.196008
2025-08-05T19:45:21.649930240Z,-0.702698,-1.116895,11.695376,-0.032224,0.047404,0.095874
2025-08-05T19:45:21.669791197Z,-0.814029,-1.040281,11.475109,-0.061119,0.044874,0.009587
2025-08-05T19:45:21.689462673Z,-0.864307,-0.661997,11.384130,0.009987,0.154730,-0.037284
2025-08-05T19:45:21.709529308Z,-0.979228,-0.603339,11.240478,0.066179,0.255131,-0.006392
2025-08-05T19:45:21.729402349Z,-0.735020,-0.424971,11.341034,0.135022,0.251935,0.053263
2025-08-05T19:45:21.749066168Z,-0.646434,-0.452504,11.187805,0.261789,0.108124,0.063916
2025-08-05T19:45:21.808744873Z,-0.899023,-0.695516,10.637139,0.326237,0.009188,0.078829
2025-08-05T19:45:21.828596350Z,-1.027112,-0.561440,9.741708,0.071106,0.037551,0.158724
2025-08-05T19:45:21.848427828Z,-0.822408,-0.466869,9.799169,0.075900,-0.050334,0.180030
2025-08-05T19:45:21.868313264Z,-0.599748,-0.110133,9.938032,0.241282,-0.167912,0.174703
2025-08-05T19:45:21.888187919Z,-0.724246,-0.350751,9.612420,0.349540,-0.255796,0.152333
2025-08-05T19:45:21.908041167Z,-0.800860,-0.500388,9.119215,0.360858,-0.251269,0.150202
2025-08-05T19:45:21.947784956Z,-0.873884,-0.494403,9.162311,0.265650,-0.191747,0.158724
2025-08-05T19:45:21.967650132Z,-0.820014,-0.310049,9.253290,0.334892,-0.200136,0.141680
2025-08-05T19:45:21.987542078Z,-0.830788,-0.196325,8.999505,0.393615,-0.188818,0.145941
2025-08-05T19:45:22.007381420Z,-0.750582,-0.300472,8.980351,0.371644,-0.196941,0.139550
2025-08-05T19:45:22.027288576Z,-0.784101,-0.402226,8.927679,0.292282,-0.176567,0.117179
2025-08-05T19:45:22.047136564Z,-0.831985,-0.484826,8.913314,0.189084,-0.150868,0.134223
2025-08-05T19:45:22.106739903Z,-0.450110,-0.508768,9.009082,0.239018,-0.124236,0.136354
2025-08-05T19:45:22.126844195Z,-0.209493,-0.882263,8.635586,0.268313,-0.078430,0.135288
2025-08-05T19:45:22.146502234Z,0.238223,-1.412579,8.649952,0.253533,0.018243,0.106526
2025-08-05T19:45:22.166404493Z,1.033098,-1.784877,8.865430,0.229964,0.132625,0.041545
2025-08-05T19:45:22.186249824Z,1.630451,-2.109292,9.214983,0.170442,0.144343,-0.012783
2025-08-05T19:45:22.206138334Z,2.317587,-2.363077,9.449615,0.116513,0.057657,-0.129962
2025-08-05T19:45:22.265712871Z,2.831144,-2.401384,8.879795,0.006924,-0.026632,-0.704139
2025-08-05T19:45:22.285589140Z,2.784456,-1.993173,9.037812,-0.028762,0.056592,-0.885234
2025-08-05T19:45:22.305473483Z,2.697068,-1.589750,9.234137,0.024235,0.076166,-1.079112
2025-08-05T19:45:22.325345117Z,2.385822,-1.523909,9.349058,0.087884,0.063649,-1.266598
2025-08-05T19:45:22.345253261Z,2.240973,-1.586159,9.210195,0.125568,0.051665,-1.465803
2025-08-05T19:45:22.365076301Z,1.930924,-1.491588,9.368212,0.111986,-0.017843,-1.635180
2025-08-05T19:45:22.385133041Z,1.400608,-1.179144,9.459191,0.108124,-0.060587,-1.760881
2025-08-05T19:45:22.404793527Z,1.039083,-0.878672,9.377789,0.143944,-0.009987,-1.883386
2025-08-05T19:45:22.424690734Z,1.013944,-0.642843,9.334693,0.175103,0.020773,-2.033588
2025-08-05T19:45:22.444535806Z,0.980426,-0.378284,9.291597,0.130095,-0.133291,-2.095373
2025-08-05T19:45:22.464417804Z,0.414197,-0.276530,8.937256,0.117445,-0.157126,-2.176333
2025-08-05T19:45:22.484273865Z,-0.053870,-0.317232,8.927679,0.041812,-0.097871,-2.272207
2025-08-05T19:45:22.504170135Z,-0.687136,0.216675,9.454403,-0.010519,-0.173105,-2.293512
2025-08-05T19:45:22.524019217Z,-1.587356,0.654814,9.957186,0.060187,-0.216115,-2.280729
2025-08-05T19:45:22.583653962Z,-3.110068,1.004368,10.005070,0.017843,-0.048070,-2.076199
2025-08-05T19:45:22.603552367Z,-3.325546,0.809240,9.660305,0.091080,0.102265,-1.985651
2025-08-05T19:45:22.623412647Z,-3.818752,0.565032,9.507075,0.137952,0.169111,-1.900430
2025-08-05T19:45:22.643277250Z,-4.264073,0.978031,9.808745,0.139416,0.009321,-1.777925
2025-08-05T19:45:22.663187426Z,-5.025429,1.045069,9.449615,0.203066,-0.106260,-1.611744
2025-08-05T19:45:22.683118956Z,-6.007052,0.736217,9.133580,0.163917,-0.168312,-1.316666
2025-08-05T19:45:22.722783109Z,-7.138312,0.458490,10.833464,-0.062185,-0.062984,-0.789360
2025-08-05T19:45:22.742609795Z,-7.690176,0.615310,11.269208,-0.022770,-0.236355,-0.539023
2025-08-05T19:45:22.762569815Z,-8.122330,0.622492,11.221324,-0.096806,-0.492152,-0.190682
2025-08-05T19:45:22.782572908Z,-8.003817,0.707487,10.890924,-0.136487,-0.625975,0.210922
2025-08-05T19:45:22.802228811Z,-7.147889,1.034295,10.234913,-0.031159,-0.380033,0.562459
2025-08-05T19:45:22.822140237Z,-5.978322,0.993594,9.612420,0.112518,-0.040081,0.855407
2025-08-05T19:45:22.881714045Z,-3.740940,1.118092,9.047389,0.004661,-0.018243,1.342232
2025-08-05T19:45:22.901594012Z,-3.645172,0.877475,8.520664,-0.063117,-0.087485,1.434910
2025-08-05T19:45:22.921315281Z,-3.774459,0.711078,8.669106,-0.209724,-0.055394,1.593634
2025-08-05T19:45:22.941300457Z,-2.997540,1.198298,9.282021,-0.243146,0.096540,1.775794
2025-08-05T19:45:22.961172143Z,-2.488773,1.156399,9.463980,-0.087085,0.279232,1.898300
2025-08-05T19:45:22.981069507Z,-2.041057,0.748188,9.329905,-0.003595,0.377769,1.957954
2025-08-05T19:45:23.040674357Z,-1.364695,0.055067,9.693824,-0.289752,0.309859,2.152898
2025-08-05T19:45:23.060556303Z,-1.090559,0.591368,9.741708,-0.124636,0.476705,2.171007
2025-08-05T19:45:23.080412312Z,-1.079785,0.349553,9.042601,0.048070,0.509196,2.155028
2025-08-05T19:45:23.100462593Z,-0.956484,-0.610521,8.946833,-0.008922,0.398675,2.156093
2025-08-05T19:45:23.120152507Z,-0.615310,-0.596156,9.487922,-0.253666,0.396012,2.168877
2025-08-05T19:45:23.140030756Z,-0.620098,0.231040,9.574113,-0.201335,0.492019,2.084721
2025-08-05T19:45:23.179777097Z,-1.253365,0.010774,9.191041,-0.045407,0.167779,2.066611
2025-08-05T19:45:23.199636751Z,-1.343147,-0.177171,9.080908,-0.151800,0.203066,2.075133
2025-08-05T19:45:23.219549479Z,-1.229423,0.574608,9.114427,-0.121706,0.333161,2.079394
2025-08-05T19:45:23.239600646Z,-1.264138,0.351948,8.697836,-0.080294,0.352336,2.003761
2025-08-05T19:45:23.259266653Z,-0.946907,-0.211887,8.515876,-0.204531,0.311590,1.998434
2025-08-05T19:45:23.279123287Z,-0.863110,-0.087388,8.616432,-0.350871,0.426239,1.935584
2025-08-05T19:45:23.299019244Z,-0.943315,0.325611,8.716990,-0.364986,0.382296,1.813079
2025-08-05T19:45:23.338743658Z,-1.112107,-0.480037,10.230124,-0.358328,0.078963,1.679921
2025-08-05T19:45:23.358622688Z,-1.033098,-0.503979,10.062531,-0.284425,0.230230,1.601091
2025-08-05T19:45:23.378530833Z,-1.139640,-1.030704,10.119991,-0.167779,0.234358,1.564872
2025-08-05T19:45:23.398365175Z,-1.018733,-1.817199,10.397718,-0.131960,0.295078,1.494565
2025-08-05T19:45:23.418257382Z,-0.810437,-2.208651,10.531794,-0.141014,0.271110,1.381647
2025-08-05T19:45:23.438093703Z,-0.563834,-2.175132,10.924443,-0.147273,0.139816,1.315600
2025-08-05T19:45:23.497690792Z,0.087388,-3.598485,10.536582,-0.055527,-0.072704,0.960868
2025-08-05T19:45:23.517574353Z,0.343568,-4.028244,10.928035,-0.221575,-0.079495,0.819321
2025-08-05T19:45:23.537473852Z,0.646434,-3.363853,11.081264,-0.287488,-0.128231,0.740491
2025-08-05T19:45:23.557371007Z,0.831985,-3.398569,10.937612,-0.153531,-0.040214,0.635030
2025-08-05T19:45:23.577216547Z,1.031901,-3.994725,10.971130,-0.051532,0.075234,0.506133
2025-08-05T19:45:23.597077348Z,0.841562,-4.118027,11.136030,-0.049002,0.039148,0.409594
2025-08-05T19:45:23.636777334Z,0.883460,-3.760094,11.227011,0.090414,0.121174,0.167779
2025-08-05T19:45:23.656692927Z,1.175553,-3.355474,11.102511,0.297075,0.063783,-0.038882
2025-08-05T19:45:23.676578155Z,0.877475,-3.337517,9.934141,0.314919,-0.016911,-0.159257
2025-08-05T19:45:23.696431716Z,0.712275,-3.232172,9.833585,0.331164,0.148338,-0.330764
2025-08-05T19:45:23.716311214Z,0.778116,-2.896984,9.986814,0.271376,0.188019,-0.413855
2025-08-05T19:45:23.736153942Z,0.702698,-2.724602,10.183139,0.302801,0.196541,-0.564057
2025-08-05T19:45:23.756038336Z,0.792481,-2.404976,10.355521,0.351271,0.150868,-0.718520
2025-08-05T19:45:23.795782959Z,1.054646,-1.885434,9.689933,0.411991,-0.205330,-1.087101
2025-08-05T19:45:23.815669228Z,0.735020,-1.657985,9.225458,0.368049,-0.226502,-1.227716
2025-08-05T19:45:23.835502945Z,0.622492,-1.602918,9.402629,0.328501,-0.084822,-1.369396
2025-08-05T19:45:23.855379683Z,0.863110,-1.368286,9.436148,0.294146,-0.106793,-1.518533
2025-08-05T19:45:23.875287151Z,0.557849,-1.766921,9.728240,0.209058,-0.319446,-1.669801
2025-08-05T19:45:23.895161910Z,0.080206,-1.971625,10.015544,0.199604,-0.388821,-1.859417
2025-08-05T19:45:23.915015783Z,-0.418985,-1.744176,10.336368,0.173238,-0.455267,-1.973401
2025-08-05T19:45:23.954779416Z,-0.748188,-1.353921,10.235811,0.279632,-0.297608,-2.205628
2025-08-05T19:45:23.974629800Z,-0.830788,-1.365892,9.929353,0.254065,-0.398009,-2.356895
2025-08-05T19:45:23.994470757Z,-1.199495,-1.261744,9.728240,0.125568,-0.619584,-2.429333
2025-08-05T19:45:24.014387131Z,-1.350330,-1.185130,9.646837,0.010786,-0.647014,-2.531599
2025-08-05T19:45:24.034205170Z,-1.387440,-0.823605,9.603742,-0.076300,-0.638492,-2.590188
2025-08-05T19:45:24.054081596Z,-1.655591,-0.580594,9.627684,-0.134356,-0.627440,-2.593384
2025-08-05T19:45:24.113705665Z,-2.207454,-0.080206,10.432136,0.074702,-0.495081,-2.578470
2025-08-05T19:45:24.133572611Z,-2.273294,0.199916,10.326791,0.104130,-0.491486,-2.542251
2025-08-05T19:45:24.153461433Z,-2.403779,0.260968,10.216658,0.174703,-0.455001,-2.530534
2025-08-05T19:45:24.173336973Z,-3.014300,0.422577,10.312426,0.143544,-0.447544,-2.432529
2025-08-05T19:45:24.193202774Z,-3.027468,1.045069,9.742605,0.104928,-0.243013,-2.352634
2025-08-05T19:45:24.213201805Z,-2.260126,1.423353,9.009979,0.069242,-0.026498,-2.296175
2025-08-05T19:45:24.252804863Z,-3.157952,1.228225,9.342175,0.260856,-0.225570,-2.073003
2025-08-05T19:45:24.272697695Z,-4.236540,1.053449,9.222465,0.287754,-0.201335,-1.944106
2025-08-05T19:45:24.292530631Z,-4.027047,1.125275,8.293514,0.167912,-0.030493,-1.819470
2025-08-05T19:45:24.312407369Z,-3.924097,1.236605,8.580819,0.189484,-0.002796,-1.701226
2025-08-05T19:45:24.332281243Z,-4.936844,1.470040,9.667787,0.393748,-0.186155,-1.450889
2025-08-05T19:45:24.352132043Z,-5.262455,0.717063,8.748413,0.384427,0.103331,-1.377386
2025-08-05T19:45:24.372012896Z,-5.351041,0.472855,9.188946,0.366850,0.141414,-1.239967
2025-08-05T19:45:24.411773977Z,-6.805518,-0.560243,10.237606,0.084822,0.286955,-0.828775
2025-08-05T19:45:24.431649361Z,-7.096414,0.089783,10.898406,-0.071639,0.375505,-0.641289
2025-08-05T19:45:24.451512557Z,-7.560889,-0.065841,11.683704,-0.237021,0.056725,-0.281230
2025-08-05T19:45:24.471352316Z,-7.892486,0.198719,11.903971,-0.166714,-0.145275,-0.003196
2025-08-05T19:45:24.491250460Z,-7.745243,0.675165,11.046846,0.028229,-0.181361,0.339819
2025-08-05T19:45:24.511133188Z,-7.110779,0.612916,9.998186,0.200536,-0.094010,0.664724
2025-08-05T19:45:24.531016437Z,-6.517017,0.306458,8.968679,0.170043,0.034754,0.846884
2025-08-05T19:45:24.570800903Z,-5.245696,0.700304,8.705317,-0.250870,-0.161787,1.365668
2025-08-05T19:45:24.590620193Z,-4.841076,1.033098,9.050082,-0.229431,-0.236089,1.530784
2025-08-05T19:45:24.610487712Z,-4.395754,0.931344,8.738836,-0.146341,-0.202666,1.729988
2025-08-05T19:45:24.630354450Z,-3.755305,0.718261,8.815451,-0.122905,0.035021,1.863146
2025-08-05T19:45:24.650234574Z,-3.280056,0.932542,8.820239,-0.161654,0.096406,2.022935
2025-08-05T19:45:24.670102823Z,-3.089717,0.548272,9.069236,-0.123437,0.005459,2.194443
2025-08-05T19:45:24.729711423Z,-1.187524,1.138443,9.097966,0.132359,0.360858,2.263685
2025-08-05T19:45:24.749547744Z,-1.401805,0.483629,8.997410,0.113051,0.237953,2.393647
2025-08-05T19:45:24.769465993Z,-1.456872,0.192733,9.035717,0.053529,0.294679,2.450106
2025-08-05T19:45:24.789304762Z,-0.922965,0.487220,8.992621,0.004794,0.576174,2.434127
2025-08-05T19:45:24.809185719Z,-0.152032,1.029507,8.901642,0.014248,0.692954,2.395778
2025-08-05T19:45:24.829044176Z,-0.003591,0.582988,9.088389,0.016911,0.539689,2.306296
2025-08-05T19:45:24.868796975Z,0.159214,0.678756,9.150639,-0.209191,-0.018243,2.057024
2025-08-05T19:45:24.888655015Z,-0.736217,0.834379,8.614338,-0.197606,-0.077098,2.052763
2025-08-05T19:45:24.908540191Z,-0.514753,-0.122104,8.863335,-0.278167,0.173238,2.146506
2025-08-05T19:45:24.928407971Z,0.453701,0.015562,9.346964,-0.325571,0.628239,2.095373
2025-08-05T19:45:24.948276480Z,1.023521,0.424971,9.481039,-0.288953,0.703340,1.918540
2025-08-05T19:45:24.968151968Z,0.146046,0.180762,9.610326,-0.257261,0.270710,1.742771
2025-08-05T19:45:24.988024696Z,-0.296881,-1.017536,9.859323,-0.378169,-0.031292,1.633049
2025-08-05T19:45:25.047596420Z,-1.436521,-0.781707,10.400413,-0.269245,0.171507,1.477520
2025-08-05T19:45:25.067498471Z,-0.519542,-1.267730,10.084377,-0.298274,0.331696,1.379516
2025-08-05T19:45:25.087365105Z,-0.349553,-1.417367,9.921572,-0.293746,0.138218,1.299621
2025-08-05T19:45:25.107264343Z,-0.851139,-1.428141,9.500193,-0.395080,0.011052,1.248489
2025-08-05T19:45:25.127106081Z,-0.841562,-1.539472,9.610326,-0.469249,0.085621,1.252750
2025-08-05T19:45:25.186702598Z,0.286107,-2.543839,10.577583,-0.256729,-0.047937,1.019457
2025-08-05T19:45:25.206599336Z,0.537498,-3.333926,10.505757,-0.197473,-0.057391,0.870320
2025-08-05T19:45:25.226450657Z,0.714669,-3.847482,10.606314,-0.274039,-0.106127,0.743554
2025-08-05T19:45:25.246352396Z,0.694318,-3.742137,10.472239,-0.279898,-0.143278,0.637028
2025-08-05T19:45:25.266204446Z,0.824802,-3.885789,10.472239,-0.222906,0.013715,0.527305
2025-08-05T19:45:25.286075403Z,1.136049,-3.943250,10.773908,-0.113451,0.167779,0.460194
2025-08-05T19:45:25.345693795Z,1.100136,-4.248511,10.678140,0.000399,0.070973,0.037284
2025-08-05T19:45:25.365619960Z,0.861913,-3.811569,10.453085,0.038349,0.024501,-0.078829
2025-08-05T19:45:25.385454146Z,0.691924,-3.169923,10.199299,0.114782,0.069642,-0.180030
2025-08-05T19:45:25.405360728Z,0.725443,-3.013103,10.002975,0.135821,0.105727,-0.266316
2025-08-05T19:45:25.425192675Z,1.053449,-3.029862,9.883265,0.127033,0.146873,-0.441019
2025-08-05T19:45:25.445048631Z,1.021127,-2.743755,9.959879,0.056858,0.033689,-0.532632
2025-08-05T19:45:25.484823254Z,0.503979,-2.558204,10.524911,0.088683,-0.008788,-0.736097
2025-08-05T19:45:25.504654992Z,0.544681,-2.616863,10.500969,0.249538,0.038349,-0.891626
2025-08-05T19:45:25.524524698Z,0.951695,-2.189497,10.103531,0.354999,0.010386,-1.092960
2025-08-05T19:45:25.544380239Z,0.954089,-1.788469,9.662998,0.311989,-0.111986,-1.272990
2025-08-05T19:45:25.564249112Z,0.560243,-1.887828,9.773131,0.221442,-0.152732,-1.465803
2025-08-05T19:45:25.584134132Z,0.052672,-1.550246,9.883265,0.208392,-0.206661,-1.636245
2025-08-05T19:45:25.604022484Z,-0.537498,-1.391031,9.782708,0.333561,-0.228366,-1.699095
2025-08-05T19:45:25.643741794Z,-0.429759,-1.104924,9.150639,0.419048,-0.129030,-2.008022
2025-08-05T19:45:25.663679366Z,-0.779313,-0.949301,9.212888,0.210922,-0.273773,-2.048502
2025-08-05T19:45:25.683526833Z,-1.025915,-0.513556,9.624691,0.123437,-0.222507,-2.102830
2025-08-05T19:45:25.703382061Z,-1.291672,-0.324414,10.017340,0.172040,-0.123171,-2.102830
2025-08-05T19:45:25.723289789Z,-1.258153,-0.211887,9.974244,0.247274,-0.020373,-2.181660
2025-08-05T19:45:25.743071943Z,-1.177947,-0.122104,10.098742,0.212254,-0.162985,-2.204030
2025-08-05T19:45:25.763180141Z,-1.163582,-0.458490,9.988609,0.142213,-0.302402,-2.232792
2025-08-05T19:45:25.802734345Z,-1.037886,-0.503979,9.844957,-0.080294,-0.229298,-2.289251
2025-08-05T19:45:25.822571864Z,-0.900220,-0.173580,10.232818,-0.089615,-0.306130,-2.300969
2025-08-05T19:45:25.842471103Z,-1.199495,0.038307,10.280702,-0.007457,-0.348208,-2.313752
2025-08-05T19:45:25.862369299Z,-1.687912,-0.173580,10.074800,0.144343,-0.287488,-2.362755
2025-08-05T19:45:25.882248486Z,-1.747767,-0.402226,9.801862,0.136886,-0.257261,-2.368081
2025-08-05T19:45:25.902096005Z,-2.154782,-0.306458,10.002975,0.159523,-0.274572,-2.360624
2025-08-05T19:45:25.961680959Z,-3.497929,0.083797,10.060435,0.319180,-0.118377,-2.235988
2025-08-05T19:45:25.981551290Z,-4.247314,0.532710,9.744401,0.401072,-0.270577,-2.119874
2025-08-05T19:45:26.001647926Z,-5.580884,0.432153,9.275137,0.452604,-0.245810,-1.962215
2025-08-05T19:45:26.021307788Z,-6.704962,0.439336,9.299079,0.384560,-0.197740,-1.744902
2025-08-05T19:45:26.041158276Z,-7.918822,0.775721,9.610326,0.309459,-0.331164,-1.449824
2025-08-05T19:45:26.061015378Z,-9.124303,0.920571,9.605537,0.180296,-0.382296,-1.050350
2025-08-05T19:45:26.120628041Z,-8.859743,1.980005,9.753978,0.160056,-0.078563,0.230097
2025-08-05T19:45:26.140490039Z,-7.943961,1.707066,9.198523,0.123970,-0.106926,0.661529
2025-08-05T19:45:26.160393861Z,-6.867768,1.647211,8.829816,0.064715,0.024102,1.023718
2025-08-05T19:45:26.180273724Z,-5.401319,2.070984,8.403648,0.061253,0.223173,1.195226
2025-08-05T19:45:26.200168171Z,-4.790798,1.861492,8.408437,0.040746,0.064448,1.417866
2025-08-05T19:45:26.220048399Z,-4.309563,1.164779,8.480263,-0.086952,-0.023835,1.665007
2025-08-05T19:45:26.259738593Z,-2.675520,1.013944,9.504981,-0.131161,0.501606,1.845036
2025-08-05T19:45:26.279618040Z,-2.615665,1.880645,9.763555,-0.017311,0.437956,1.855689
2025-08-05T19:45:26.299532747Z,-2.704251,1.227028,9.864111,0.147938,0.193079,1.964346
2025-08-05T19:45:26.319360058Z,-2.293645,0.271742,9.969456,0.094942,0.401738,2.039980
2025-08-05T19:45:26.339199764Z,-1.608904,0.644040,9.983821,0.116247,0.618652,2.035719
2025-08-05T19:45:26.359089159Z,-1.564611,1.163582,9.682152,0.228898,0.536627,2.063416
2025-08-05T19:45:26.418698696Z,-0.870292,-0.967257,9.165004,-0.055660,0.438755,2.237053
2025-08-05T19:45:26.438576685Z,-0.199916,-0.175974,9.524135,-0.199071,0.721050,2.169942
2025-08-05T19:45:26.458451444Z,0.040701,0.096965,9.782708,-0.142479,0.613459,2.096439
2025-08-05T19:45:26.478312296Z,0.565032,-0.754174,9.749189,-0.203465,0.533164,2.022935
2025-08-05T19:45:26.498174764Z,1.217452,-0.684742,9.509769,-0.300138,0.669651,1.815209
2025-08-05T19:45:26.518052075Z,1.022324,-0.100556,9.519346,-0.353401,0.507864,1.606417
2025-08-05T19:45:26.577676716Z,-1.209072,-0.729034,10.793061,-0.359526,0.216781,1.318796
2025-08-05T19:45:26.597539236Z,-1.212663,-0.538695,10.644621,-0.242747,0.259658,1.306013
2025-08-05T19:45:26.617422536Z,-0.726640,-0.699107,10.409989,-0.180163,0.303733,1.331579
2025-08-05T19:45:26.637289795Z,0.090980,-0.524330,10.127473,-0.135155,0.428103,1.206944
2025-08-05T19:45:26.657169711Z,0.071826,-0.511162,9.825804,-0.198805,0.203598,1.100417
2025-08-05T19:45:26.677016292Z,-0.532710,-0.666785,9.830592,-0.266582,-0.054062,1.029045
2025-08-05T19:45:26.716852009Z,-0.380678,-0.718261,10.357317,-0.293214,0.133557,0.975781
2025-08-05T19:45:26.736628121Z,-0.015562,-0.281319,10.165780,-0.204531,0.215183,0.891626
2025-08-05T19:45:26.756715695Z,0.040701,-0.487220,9.988609,-0.134623,0.121307,0.819188
2025-08-05T19:45:26.776385504Z,-0.167594,-1.521515,10.366894,-0.128764,0.055660,0.710531
2025-08-05T19:45:26.796279534Z,-0.300472,-1.874660,10.697293,-0.186155,0.014647,0.650876
2025-08-05T19:45:26.816152887Z,-0.213084,-1.460463,10.788273,-0.105727,0.138884,0.578438
2025-08-05T19:45:26.836006031Z,0.010774,-1.333570,10.658986,0.127299,0.246609,0.506000
2025-08-05T19:45:26.875732059Z,0.401029,-2.470816,10.941502,0.266582,0.179364,0.251402
2025-08-05T19:45:26.895593641Z,0.203507,-2.132037,10.668563,0.217181,0.052198,0.157659
2025-08-05T19:45:26.915440952Z,0.023942,-1.669956,10.319010,0.347409,0.179497,0.092678
2025-08-05T19:45:26.935346180Z,-0.040701,-1.029507,9.792285,0.579770,0.495081,0.015979
2025-08-05T19:45:26.955211356Z,-0.294487,-0.901417,9.414001,0.724379,0.796950,-0.020240
2025-08-05T19:45:26.975103719Z,0.069432,-0.943315,9.543288,0.756470,0.899748,-0.192813
2025-08-05T19:45:27.034663777Z,-1.200692,0.606930,9.380483,0.381231,-0.155662,-0.540089
2025-08-05T19:45:27.054569317Z,-1.738190,0.847547,9.514558,0.449009,0.095741,-0.543284
2025-08-05T19:45:27.074417982Z,-1.947683,0.968455,9.337387,0.520914,0.472711,-0.562459
2025-08-05T19:45:27.094333679Z,-1.732205,0.739808,9.509769,0.516520,0.664724,-0.601874
2025-08-05T19:45:27.114180157Z,-1.266533,0.615310,9.734824,0.403868,0.499076,-0.690291
2025-08-05T19:45:27.134042520Z,-1.078588,0.521936,9.950302,0.260856,-0.015180,-0.807470
2025-08-05T19:45:27.173827507Z,-2.207454,1.323994,9.385271,0.179896,-0.353401,-0.953411
2025-08-05T19:45:27.193683307Z,-2.449268,1.419762,9.624691,0.274172,-0.085221,-1.021588
2025-08-05T19:45:27.213544681Z,-2.421735,1.104924,9.916783,0.302002,-0.114116,-0.992826
2025-08-05T19:45:27.233398659Z,-2.361880,1.063026,9.816227,0.316516,-0.261256,-1.007739
2025-08-05T19:45:27.253254459Z,-2.412158,1.277307,9.409213,0.298407,-0.344080,-1.004544
2025-08-05T19:45:27.273139635Z,-2.415750,1.358709,9.136273,0.260723,-0.242214,-1.022653
2025-08-05T19:45:27.293053717Z,-2.269703,1.504756,9.437943,0.215050,-0.188685,-1.067394
2025-08-05T19:45:27.332744953Z,-2.586935,1.380257,9.581595,0.183625,-0.444748,-1.072720
2025-08-05T19:45:27.352640963Z,-2.460042,1.399411,9.279925,0.190150,-0.498277,-1.075916
2025-08-05T19:45:27.372496971Z,-2.370260,1.229423,9.064447,0.121174,-0.485094,-1.032240
2025-08-05T19:45:27.392358814Z,-2.184709,1.517924,9.141062,0.084289,-0.371644,-1.029045
2025-08-05T19:45:27.412224718Z,-1.990779,1.588553,9.337387,0.091613,-0.307329,-1.030110
2025-08-05T19:45:27.432115415Z,-1.764527,1.367089,9.356541,0.087218,-0.310258,-1.069525
2025-08-05T19:45:27.491730630Z,-2.322376,1.091756,9.117120,-0.001731,-0.381764,-1.201617
2025-08-05T19:45:27.511603305Z,-2.317587,1.035492,9.208099,-0.092944,-0.353401,-1.200552
2025-08-05T19:45:27.531470981Z,-2.200271,1.167173,9.442732,-0.166181,-0.402403,-1.179247
2025-08-05T19:45:27.551356730Z,-2.145205,1.276109,9.504981,-0.144476,-0.432630,-1.194160
2025-08-05T19:45:27.571256281Z,-2.130840,1.176750,9.524135,-0.115847,-0.434095,-1.170725
2025-08-05T19:45:27.591106352Z,-2.267309,1.009156,9.581595,-0.075234,-0.355399,-1.178181
2025-08-05T19:45:27.650762869Z,-2.181118,0.836774,10.055647,-0.154596,-0.462191,-1.193095
2025-08-05T19:45:27.670580492Z,-2.237381,0.761356,9.945514,-0.098537,-0.446479,-1.196291
2025-08-05T19:45:27.690428271Z,-2.401384,0.715866,9.902418,-0.060587,-0.404933,-1.208009
2025-08-05T19:45:27.710302093Z,-2.397793,0.636858,9.801862,-0.098670,-0.435160,-1.168594
2025-08-05T19:45:27.730151487Z,-2.286463,0.482432,9.935937,-0.160855,-0.463256,-1.169659
2025-08-05T19:45:27.750022340Z,-2.246958,0.657208,10.103531,-0.263919,-0.643819,-1.115331
2025-08-05T19:45:27.770122674Z,-2.565387,0.535104,10.141838,-0.358727,-0.804940,-1.034371
2025-08-05T19:45:27.789771858Z,-2.541445,0.731429,10.132261,-0.435160,-0.787896,-0.994956
2025-08-05T19:45:27.809636877Z,-1.980005,0.633266,10.170568,-0.567652,-0.865260,-0.942758
2025-08-05T19:45:27.829511793Z,-1.855506,0.586579,10.050858,-0.848616,-1.180179,-0.846884
2025-08-05T19:45:27.849402593Z,-2.153584,0.219069,10.443508,-1.152482,-1.523194,-0.717988
2025-08-05T19:45:27.869249904Z,-2.072181,0.471658,10.749966,-1.277917,-1.567003,-0.711596
2025-08-05T19:45:27.889117788Z,-1.877054,0.259771,10.783484,-1.301752,-1.681385,-0.556068
2025-08-05T19:45:27.909007027Z,-1.624466,-0.341174,10.333375,-1.392699,-1.681119,-0.428236
2025-08-05T19:45:27.948740242Z,-1.009156,0.069432,10.208876,-1.434377,-1.639307,-0.267381
2025-08-05T19:45:27.968616095Z,-0.754174,-0.513556,9.777920,-1.443565,-1.520664,-0.124636
2025-08-05T19:45:27.988515646Z,-0.705092,-0.554258,10.266336,-1.366334,-1.527854,-0.003196
2025-08-05T19:45:28.008352748Z,-0.457293,-1.051055,10.089166,-1.331180,-1.545830,0.075634
2025-08-05T19:45:28.028229122Z,-0.252588,-1.440112,9.734824,-1.283110,-1.447160,0.079895
2025-08-05T19:45:28.048216382Z,0.361524,-1.547851,9.567230,-1.303483,-1.372858,0.082025
2025-08-05T19:45:28.107708106Z,0.821211,-2.051831,8.920795,-1.334109,-1.624261,0.453802
2025-08-05T19:45:28.127574115Z,1.088165,-2.182315,8.738836,-1.202416,-1.460609,0.575242
2025-08-05T19:45:28.147464707Z,1.617283,-2.585738,9.016563,-1.020922,-1.331180,0.644484
2025-08-05T19:45:28.167337748Z,1.899799,-3.357868,8.930372,-0.883370,-1.237437,0.662594
2025-08-05T19:45:28.187195423Z,2.194286,-3.993528,8.667010,-0.882571,-1.257810,0.711596
2025-08-05T19:45:28.207053776Z,2.504335,-4.241328,8.532935,-0.965528,-1.386307,0.751011
2025-08-05T19:45:28.266667636Z,2.668338,-4.416105,8.078036,-0.525574,-1.455416,0.787230
2025-08-05T19:45:28.286541249Z,2.865860,-4.769250,7.666234,-0.400672,-1.447959,0.886299
2025-08-05T19:45:28.306400227Z,3.104083,-4.964377,7.340622,-0.216248,-1.293363,0.884169
2025-08-05T19:45:28.326289361Z,3.371036,-5.049371,7.043741,-0.072172,-1.239700,0.863929
2025-08-05T19:45:28.346182297Z,3.490746,-5.188235,6.995857,0.006791,-1.267797,0.940628
2025-08-05T19:45:28.366040494Z,3.711013,-5.214571,6.813898,0.168445,-1.163135,0.941693
2025-08-05T19:45:28.425647427Z,3.728969,-4.796783,6.785168,1.082973,-0.872451,1.138767
2025-08-05T19:45:28.445508332Z,3.869030,-4.976348,6.732495,1.559679,-0.485494,1.133440
2025-08-05T19:45:28.465378820Z,4.231751,-5.681441,6.483498,1.859284,-0.140615,0.982173
2025-08-05T19:45:28.485251027Z,4.238934,-5.908890,6.497863,1.759283,-0.091213,0.947019
2025-08-05T19:45:28.505118338Z,4.140772,-5.209783,6.196194,1.604154,-0.099602,1.155811
2025-08-05T19:45:28.564744229Z,3.145981,-4.080917,8.149862,2.786729,1.454351,1.529718
2025-08-05T19:45:28.584609353Z,3.533842,-4.402937,8.815451,3.095256,1.709082,1.341167
2025-08-05T19:45:28.604481091Z,3.878607,-4.492720,8.868123,3.137201,1.550491,1.206944
2025-08-05T19:45:28.624319548Z,3.238158,-4.181473,8.724471,2.918556,1.319462,1.213335
2025-08-05T19:45:28.644205348Z,2.500744,-3.788824,8.327033,2.797249,1.421594,1.148354
2025-08-05T19:45:28.664071357Z,2.072181,-3.260903,8.485051,2.701508,1.698563,1.206944
2025-08-05T19:45:28.723886834Z,1.808819,-2.191892,9.366117,2.611360,2.419080,0.964063
2025-08-05T19:45:28.743618415Z,1.659182,-2.294842,9.490616,2.381929,2.220275,0.796817
2025-08-05T19:45:28.763484267Z,1.464054,-1.796848,9.926360,1.915877,1.743570,0.823449
2025-08-05T19:45:28.783551528Z,0.367510,-1.389834,9.653421,1.546097,1.478586,0.812796
2025-08-05T19:45:28.803403110Z,0.174777,-0.741005,9.773131,1.395362,1.528919,0.642354
2025-08-05T19:45:28.823069065Z,-0.031125,-0.454898,10.070012,1.404550,1.477920,0.434628
2025-08-05T19:45:28.862813479Z,-1.097741,0.505177,9.495404,1.283509,1.103746,0.374973
2025-08-05T19:45:28.882691311Z,-1.392228,0.985214,9.831490,1.337039,1.023186,0.222773
2025-08-05T19:45:28.902551330Z,-1.823185,1.085770,9.663896,1.163135,0.918657,0.230230
2025-08-05T19:45:28.922409995Z,-2.194286,1.256956,9.706991,0.988964,0.952079,0.337822
2025-08-05T19:45:28.942291629Z,-2.389413,1.862689,10.233716,0.925315,1.213069,0.326104
2025-08-05T19:45:28.962150451Z,-2.229002,2.232593,9.673472,0.886432,1.339835,0.295211
2025-08-05T19:45:28.982330941Z,-2.148796,2.394202,9.845855,0.957139,1.165531,0.240883
2025-08-05T19:45:29.021756030Z,-2.871845,3.235764,9.568128,1.168195,0.906140,0.230230
2025-08-05T19:45:29.041649122Z,-3.156755,3.172317,9.065346,1.357412,0.963797,0.192946
2025-08-05T19:45:29.061519714Z,-3.145981,3.059790,8.706215,1.352219,1.076182,0.162053
2025-08-05T19:45:29.081572183Z,-3.014300,3.175909,8.763676,1.279648,1.151417,0.101333
2025-08-05T19:45:29.101222253Z,-3.102885,3.420117,8.859444,1.182043,1.143560,0.091746
2025-08-05T19:45:29.121095137Z,-3.245340,3.728969,8.816348,1.213335,1.087634,0.104529
2025-08-05T19:45:29.141193856Z,-3.289633,3.804387,8.907329,1.280979,0.980841,0.054462
2025-08-05T19:45:29.180804206Z,-3.451242,3.429694,8.280047,1.369529,1.070190,-0.255530
2025-08-05T19:45:29.200611048Z,-3.551798,3.894169,8.303989,1.390702,1.031175,-0.294945
2025-08-05T19:45:29.220455859Z,-3.892972,4.074931,8.122030,1.423591,0.962998,-0.307728
2025-08-05T19:45:29.240364993Z,-4.309563,4.076128,8.045416,1.492567,0.887498,-0.308793
2025-08-05T19:45:29.260216002Z,-4.574122,4.523844,8.184279,1.452620,0.816924,-0.219311
2025-08-05T19:45:29.280077532Z,-4.704607,4.667496,7.935282,1.405216,0.752875,-0.229964
2025-08-05T19:45:29.339907644Z,-4.757279,4.832696,6.891410,1.490437,0.944889,-0.413189
2025-08-05T19:45:29.359566464Z,-4.936844,5.171476,6.829161,1.500157,0.718520,-0.379101
2025-08-05T19:45:29.379500077Z,-4.808754,5.199009,6.393416,1.462474,0.488423,-0.331164
2025-08-05T19:45:29.399289159Z,-5.112818,5.249287,5.986402,1.359543,0.338354,-0.315185
2025-08-05T19:45:29.419162199Z,-5.301960,5.292383,5.584176,1.171124,0.183758,-0.306663
2025-08-05T19:45:29.439055500Z,-5.282806,5.311536,5.277719,1.002946,0.128098,-0.376970
2025-08-05T19:45:29.498658058Z,-5.317522,6.113594,5.325603,0.739959,-0.558464,-0.365252
2025-08-05T19:45:29.518500473Z,-5.653907,6.013038,5.191527,0.733434,-0.726643,-0.347143
2025-08-05T19:45:29.538416013Z,-5.870583,6.010643,5.023933,0.609730,-0.729839,-0.319446
2025-08-05T19:45:29.558324575Z,-5.889736,6.179435,4.999991,0.441552,-0.675910,-0.292814
2025-08-05T19:45:29.578250897Z,-5.592855,6.625953,5.282507,0.405066,-0.677108,-0.273640
2025-08-05T19:45:29.598068364Z,-5.523423,6.418855,5.205892,0.390819,-0.759932,-0.325837
2025-08-05T19:45:29.637759131Z,-5.552154,6.464345,5.287295,0.313986,-1.137701,-0.345012
2025-08-05T19:45:29.657631390Z,-5.708974,6.368577,5.287295,0.292681,-1.161803,-0.382296
2025-08-05T19:45:29.677509326Z,-5.744887,6.295553,4.995203,0.243146,-1.110271,-0.439821
2025-08-05T19:45:29.697354241Z,-5.731719,6.471527,4.947319,0.226102,-1.183375,-0.450473
2025-08-05T19:45:29.717280563Z,-6.022614,6.490681,4.956895,0.193212,-1.257810,-0.408928
2025-08-05T19:45:29.737327147Z,-5.947197,6.481104,4.794090,0.207993,-1.233042,-0.458995
2025-08-05T19:45:29.796700172Z,-6.135142,6.513426,4.765359,0.204664,-1.105078,-0.462191
2025-08-05T19:45:29.816584045Z,-5.928043,6.509834,4.856339,0.187220,-1.069391,-0.425972
2025-08-05T19:45:29.836440783Z,-5.974730,6.563704,4.761169,0.171907,-1.108540,-0.392550
2025-08-05T19:45:29.856325282Z,-6.168661,6.719327,4.627094,0.184823,-1.137302,-0.327569
2025-08-05T19:45:29.876193374Z,-6.341043,6.654684,4.478653,0.214917,-1.032240,-0.291350
2025-08-05T19:45:29.896063654Z,-6.159084,6.578069,4.497807,0.162453,-0.902544,-0.244478
2025-08-05T19:45:29.955692098Z,-5.638345,6.549339,4.880879,-0.331031,-1.409077,-0.010120
2025-08-05T19:45:29.975852484Z,-5.625177,6.455965,5.034108,-0.609331,-1.688975,0.087884
2025-08-05T19:45:29.995591773Z,-5.846641,6.214150,5.062839,-1.029045,-1.954625,0.231695
2025-08-05T19:45:30.015312989Z,-5.934029,6.120777,5.393239,-1.532648,-2.024667,0.345678
2025-08-05T19:45:30.035178009Z,-4.987122,6.175843,5.781099,-2.187785,-2.377136,0.453270
2025-08-05T19:45:30.055054018Z,-4.839879,5.886145,6.164172,-3.138266,-2.852643,0.711063
2025-08-05T19:45:30.094772025Z,-4.859032,5.500679,7.907150,-4.066111,-2.863428,0.902811
2025-08-05T19:45:30.114655743Z,-4.510676,4.981137,8.409933,-3.812046,-2.777408,0.720651
2025-08-05T19:45:30.134515918Z,-3.525462,4.690241,8.213608,-3.393663,-2.868888,0.785632
2025-08-05T19:45:30.154425938Z,-3.117251,3.818752,7.691672,-3.050915,-2.380198,0.937965
2025-08-05T19:45:30.174276165Z,-2.096124,3.147178,7.883208,-2.458229,-1.489372,0.870853
2025-08-05T19:45:30.194123789Z,-1.092953,2.736573,8.596681,-1.765808,-0.704938,0.781371
2025-08-05T19:45:30.253765826Z,0.489614,1.145625,9.247903,-1.183907,-0.399208,0.980575
2025-08-05T19:45:30.273605116Z,0.906205,1.140837,9.492112,-0.935568,-0.314652,0.858070
2025-08-05T19:45:30.293522220Z,0.778116,1.024718,9.386767,-0.637693,-0.298274,0.816525
2025-08-05T19:45:30.313361666Z,0.399832,0.571017,9.061155,-0.494149,-0.221442,0.830373
2025-08-05T19:45:30.333249810Z,0.506374,0.503979,9.142558,-0.377902,-0.104928,0.841026
2025-08-05T19:45:30.353318165Z,0.325611,0.769736,9.027637,-0.278833,-0.018243,0.866592
2025-08-05T19:45:30.373015006Z,0.316035,0.293290,8.754698,-0.136487,0.142479,0.890028
2025-08-05T19:45:30.412716867Z,1.238999,0.368707,9.391556,-0.005726,0.226369,0.768588
2025-08-05T19:45:30.432573501Z,0.973243,0.339977,9.137770,0.006525,0.053529,0.777110
2025-08-05T19:45:30.452468729Z,0.537498,0.001197,8.807370,0.000000,0.145941,0.727042
2025-08-05T19:45:30.472320415Z,0.642843,0.096965,9.391556,-0.026498,0.226235,0.685497
2025-08-05T19:45:30.492205018Z,0.731429,-0.074220,9.592669,-0.068044,0.235556,0.714259
2025-08-05T19:45:30.512054308Z,0.689530,0.013168,9.611822,-0.034754,0.324373,0.666322
2025-08-05T19:45:30.571780669Z,0.083797,-0.496797,9.731532,0.058057,0.073237,0.532099
2025-08-05T19:45:30.591543969Z,-0.070629,-0.834379,9.607034,-0.083224,0.142745,0.553404
2025-08-05T19:45:30.611401123Z,0.310049,-0.245406,9.975740,-0.065913,0.306929,0.541686
2025-08-05T19:45:30.631268070Z,0.434548,0.014365,10.157700,0.101333,0.311456,0.509729
2025-08-05T19:45:30.651164496Z,0.365116,-0.403423,9.817723,0.201068,0.343681,0.466053
2025-08-05T19:45:30.671024515Z,0.424971,-0.755371,9.650129,0.177100,0.365119,0.455400
2025-08-05T19:45:30.710810700Z,0.387861,-0.816423,9.822512,0.001864,0.264984,0.404268
2025-08-05T19:45:30.730619208Z,0.278924,-0.645237,9.980529,0.037817,0.330498,0.340352
2025-08-05T19:45:30.750534176Z,0.514753,-0.606930,10.133758,0.122638,0.376837,0.254065
2025-08-05T19:45:30.770411643Z,0.572214,-0.784101,10.100239,0.144476,0.218512,0.177366
2025-08-05T19:45:30.790314215Z,0.079009,-0.940921,9.875184,0.002397,0.026365,0.201867
2025-08-05T19:45:30.810147516Z,-0.211887,-0.912191,9.899126,-0.107991,0.025300,0.226369
2025-08-05T19:45:30.869789814Z,-0.010774,-0.823605,10.320506,-0.113850,0.120907,0.109190
2025-08-05T19:45:30.889603426Z,0.010774,-0.858321,10.061932,-0.064315,0.133957,0.046339
2025-08-05T19:45:30.909483706Z,-0.164003,-0.793678,9.827300,-0.131161,0.017311,0.072971
2025-08-05T19:45:30.929382580Z,-0.381875,-0.806846,9.707590,-0.193079,-0.099469,0.098537
2025-08-05T19:45:30.949451820Z,-0.274136,-0.955287,9.640553,-0.262188,-0.085354,0.099602
2025-08-05T19:45:30.969389600Z,-0.161609,-0.998382,9.492112,-0.219577,-0.019308,0.038882
2025-08-05T19:45:31.028713562Z,-0.137667,-0.919373,9.434651,-0.112785,-0.095341,-0.053796
2025-08-05T19:45:31.048574727Z,-0.106542,-1.090559,9.353249,-0.199204,-0.081759,-0.072971
2025-08-05T19:45:31.068454799Z,0.019154,-0.948104,9.358037,-0.300671,-0.133691,-0.129430
2025-08-05T19:45:31.088356589Z,-0.165200,-0.739808,9.520843,-0.391484,-0.291350,-0.103863
2025-08-05T19:45:31.108163171Z,-0.314838,-0.798466,9.405921,-0.438622,-0.205596,-0.096406
2025-08-05T19:45:31.128109441Z,0.014365,-0.708684,9.391556,-0.365652,-0.085754,-0.149670
2025-08-05T19:45:31.187656946Z,-0.015562,-0.812831,9.554361,-0.298141,-0.078563,-0.158192
2025-08-05T19:45:31.207539622Z,0.158017,-0.882263,9.348460,-0.255131,-0.197340,-0.170975
2025-08-05T19:45:31.227413392Z,0.126893,-1.164779,9.195230,-0.278433,-0.246475,-0.134756
2025-08-05T19:45:31.247297994Z,0.007183,-1.240196,9.089886,-0.252068,-0.182959,-0.167779
2025-08-05T19:45:31.267175983Z,-0.125696,-1.295263,9.214384,-0.237687,-0.113983,-0.185888
2025-08-05T19:45:31.287051002Z,-0.372298,-1.357512,9.195230,-0.271642,-0.061386,-0.184823
2025-08-05T19:45:31.326770416Z,0.010774,-1.322796,9.698013,-0.264718,-0.016645,-0.243413
2025-08-05T19:45:31.346679498Z,0.026336,-1.358709,9.267057,-0.318647,-0.124370,-0.232760
2025-08-05T19:45:31.366555715Z,-0.047884,-1.362301,8.778640,-0.374706,-0.131161,-0.194411
2025-08-05T19:45:31.386581361Z,0.617704,-2.902970,8.400356,0.017843,0.705204,-0.173105
2025-08-05T19:45:31.406265702Z,-2.451663,0.105345,10.033201,0.150202,0.027564,0.167779
2025-08-05T19:45:31.426132961Z,0.928950,-2.365471,7.370849,0.194544,-0.006658,-0.009055
2025-08-05T19:45:31.485768644Z,0.069432,-1.122881,9.482535,0.738361,-0.038216,-0.031425
2025-08-05T19:45:31.505828926Z,-0.253785,-0.706290,9.568727,0.869122,-0.036352,-0.011185
2025-08-05T19:45:31.525560715Z,-0.275333,-0.611719,9.674071,1.001348,-0.017311,-0.080427
2025-08-05T19:45:31.545576933Z,-0.499191,-0.930147,9.104251,1.652091,-0.018908,0.000533
2025-08-05T19:45:31.565471067Z,0.407014,1.827973,9.583092,-0.221442,-0.009321,-0.425573
2025-08-05T19:45:31.585081397Z,-0.314838,-0.392649,11.958139,-0.093743,-0.020639,0.001598
2025-08-05T19:45:31.644755102Z,-0.126893,-0.392649,9.776124,-0.013582,-0.007590,-0.014381
2025-08-05T19:45:31.664576214Z,-0.077812,-0.183156,9.795278,-0.013049,-0.007723,-0.014381
2025-08-05T19:45:31.684435036Z,-0.067038,-0.165200,9.728240,0.004927,-0.008256,-0.014381
2025-08-05T19:45:31.704313649Z,-0.146046,-0.232238,9.680356,0.005726,-0.007590,-0.013316
2025-08-05T19:45:31.724195595Z,-0.110133,-0.265756,9.709086,-0.003196,-0.010120,-0.014381
2025-08-05T19:45:31.744121501Z,-0.033519,-0.227449,9.699510,-0.003462,-0.008522,-0.015446
2025-08-05T19:45:31.764011833Z,-0.083797,-0.213084,9.685144,0.000932,-0.006658,-0.014381
2025-08-05T19:45:31.803858695Z,-0.067038,-0.237026,9.680356,-0.001198,-0.008788,-0.014381
2025-08-05T19:45:31.823535067Z,-0.108936,-0.246603,9.699510,-0.001997,-0.007590,-0.014381
2025-08-05T19:45:31.843391180Z,-0.112527,-0.231040,9.747394,-0.001332,-0.008788,-0.014381
2025-08-05T19:45:31.863267658Z,-0.059855,-0.238223,9.709086,-0.001598,-0.008655,-0.014381
2025-08-05T19:45:31.883178199Z,-0.088585,-0.237026,9.723452,-0.000399,-0.007590,-0.013316
2025-08-05T19:45:31.903003061Z,-0.113725,-0.232238,9.709086,-0.001997,-0.009055,-0.014381
2025-08-05T19:45:31.942770392Z,-0.084994,-0.229843,9.713875,-0.001198,-0.007723,-0.014381
2025-08-05T19:45:31.962672633Z,-0.093374,-0.235829,9.709086,-0.001198,-0.008522,-0.015446
2025-08-05T19:45:31.982519363Z,-0.083797,-0.232238,9.713875,-0.002397,-0.009321,-0.015446
2025-08-05T19:45:32.002360313Z,-0.087388,-0.237026,9.704298,-0.001065,-0.008522,-0.015446
2025-08-05T19:45:32.022241781Z,-0.100556,-0.223858,9.699510,-0.001598,-0.008389,-0.015446
2025-08-05T19:45:32.042115280Z,-0.102951,-0.232238,9.713875,-0.003063,-0.009055,-0.014381
2025-08-05T19:45:32.101745726Z,-0.095768,-0.226252,9.723452,-0.001997,-0.009587,-0.015446
2025-08-05T19:45:32.121583550Z,-0.071826,-0.211887,9.713875,-0.002264,-0.007989,-0.014381
2025-08-05T19:45:32.141359088Z,-0.106542,-0.233435,9.613318,-0.001332,-0.009454,-0.014381
2025-08-05T19:45:32.161359245Z,-0.118513,-0.207098,9.790489,-0.000000,-0.010653,-0.015446
2025-08-05T19:45:32.181221600Z,-0.029928,-0.234632,9.728240,-0.001332,-0.009587,-0.014381
2025-08-05T19:45:32.201039166Z,-0.083797,-0.253785,9.761759,-0.001465,-0.006924,-0.014381
