timestamp,accel_x,accel_y,accel_z,gyro_x,gyro_y,gyro_z
2025-08-05T19:50:36.197299822Z,0.000000,-0.213084,9.744700,-0.000533,-0.007590,-0.014381
2025-08-05T19:50:36.217152758Z,0.001197,-0.241814,9.662998,0.000932,-0.006924,-0.013848
2025-08-05T19:50:36.237067466Z,0.014365,-0.198719,9.715671,-0.001997,-0.009321,-0.013848
2025-08-05T19:50:36.276781932Z,0.028730,-0.179565,9.730036,-0.003196,-0.006924,-0.013848
2025-08-05T19:50:36.296638566Z,-0.073023,-0.251391,9.753978,-0.000399,-0.008522,-0.014914
2025-08-05T19:50:36.316526659Z,0.028730,-0.293290,9.696517,-0.001332,-0.008922,-0.013848
2025-08-05T19:50:36.336437096Z,-0.002394,-0.243011,9.701305,-0.002663,-0.008522,-0.013848
2025-08-05T19:50:36.356228157Z,-0.008380,-0.172383,9.749189,-0.004128,-0.008922,-0.012783
2025-08-05T19:50:36.376141771Z,-0.008380,-0.201113,9.715671,-0.003063,-0.007856,-0.013848
2025-08-05T19:50:36.396009499Z,0.007183,-0.215478,9.727343,-0.002663,-0.009321,-0.013848
2025-08-05T19:50:36.416050875Z,-0.005986,-0.227449,9.708189,-0.001864,-0.009587,-0.014914
2025-08-05T19:50:36.435727403Z,0.025139,-0.226252,9.722554,-0.002264,-0.008655,-0.013848
2025-08-05T19:50:36.455630287Z,-0.009577,-0.220267,9.722554,-0.002530,-0.007856,-0.013848
2025-08-05T19:50:36.475477859Z,-0.022745,-0.177171,9.727343,-0.002663,-0.008389,-0.013848
2025-08-05T19:50:36.495329337Z,-0.021548,-0.187945,9.727343,-0.003462,-0.008389,-0.014914
2025-08-05T19:50:36.515247534Z,0.029928,-0.215478,9.727343,-0.002796,-0.008922,-0.013848
2025-08-05T19:50:36.535094273Z,0.032322,-0.244209,9.708189,-0.003196,-0.008123,-0.013848
2025-08-05T19:50:36.594716832Z,-0.008380,-0.185551,9.712977,-0.001598,-0.007590,-0.013848
2025-08-05T19:50:36.614590810Z,0.005986,-0.184354,9.732131,-0.002264,-0.008522,-0.013848
2025-08-05T19:50:36.634448694Z,-0.010774,-0.220267,9.717766,-0.003728,-0.007856,-0.013848
2025-08-05T19:50:36.654301943Z,-0.015562,-0.250194,9.708189,-0.002131,-0.007856,-0.013848
2025-08-05T19:50:36.674172848Z,-0.007183,-0.216675,9.712977,-0.001997,-0.009587,-0.014914
2025-08-05T19:50:36.694038597Z,0.003591,-0.183156,9.722554,-0.001065,-0.007723,-0.013848
2025-08-05T19:50:36.753700636Z,-0.022745,-0.247800,9.712977,-0.000666,-0.008655,-0.013848
2025-08-05T19:50:36.773526437Z,-0.027533,-0.243011,9.717766,-0.001731,-0.007856,-0.013848
2025-08-05T19:50:36.793461457Z,-0.019154,-0.209493,9.722554,-0.001198,-0.008123,-0.013848
2025-08-05T19:50:36.813467937Z,0.001197,-0.213084,9.722554,-0.002530,-0.007723,-0.012783
2025-08-05T19:50:36.833172590Z,-0.029928,-0.167594,9.736919,0.000133,-0.009055,-0.013848
2025-08-05T19:50:36.853043287Z,0.014365,-0.190339,9.689035,-0.002796,-0.008123,-0.013848
2025-08-05T19:50:36.912640586Z,-0.029928,-0.229843,9.717766,-0.001198,-0.008256,-0.013848
2025-08-05T19:50:36.932506543Z,-0.013168,-0.197522,9.732131,-0.002264,-0.007590,-0.013848
2025-08-05T19:50:36.952420209Z,0.008380,-0.210690,9.717766,-0.002929,-0.008788,-0.013848
2025-08-05T19:50:36.972227208Z,0.002394,-0.214281,9.703401,-0.002530,-0.007723,-0.013848
2025-08-05T19:50:36.992126499Z,0.010774,-0.231040,9.712977,-0.002131,-0.008256,-0.014914
2025-08-05T19:50:37.051719839Z,0.028730,-0.166397,9.717766,-0.004794,-0.007191,-0.013848
2025-08-05T19:50:37.071620120Z,1.859098,0.245406,7.505523,-0.011851,-0.032890,-0.565655
2025-08-05T19:50:37.091450660Z,4.095282,2.239776,9.684247,-0.377636,0.183758,-0.275903
2025-08-05T19:50:37.111370055Z,1.539472,-1.203086,6.543054,0.488556,-0.039015,0.025566
2025-08-05T19:50:37.131260856Z,1.856703,-0.622492,9.780015,0.015180,-0.060853,-0.069242
2025-08-05T19:50:37.151123116Z,1.543063,-0.228646,10.115203,-0.050733,0.006525,0.049002
2025-08-05T19:50:37.210733540Z,0.464475,-0.341174,9.842264,0.006525,-0.015713,-0.237554
2025-08-05T19:50:37.230601059Z,-0.270545,-0.626084,9.851841,0.084555,-0.029561,-0.315318
2025-08-05T19:50:37.250663425Z,-1.164779,-0.409408,9.837476,-0.013316,-0.000133,-0.300404
2025-08-05T19:50:37.270325109Z,-1.442507,-0.359130,9.631575,0.006924,-0.016645,-0.199204
2025-08-05T19:50:37.310078586Z,-2.060210,-0.260968,9.888053,0.026498,0.031958,-0.078829
2025-08-05T19:50:37.349794407Z,-1.723825,-0.823605,9.576807,-0.015313,0.011452,-0.019175
2025-08-05T19:50:37.369669687Z,-2.549825,-1.702277,11.018116,0.115847,-0.003995,-0.486825
2025-08-05T19:50:37.389558145Z,-1.316811,-0.707487,10.007763,0.013316,0.006658,-0.726510
2025-08-05T19:50:37.409655667Z,-0.477643,-0.092177,9.423578,-0.006392,-0.014914,-0.706270
2025-08-05T19:50:37.429281621Z,0.207098,-0.098162,9.897630,-0.033156,-0.011185,-0.668985
2025-08-05T19:50:37.449197527Z,-0.039504,-0.152032,9.825804,-0.013449,-0.000799,-0.566720
2025-08-05T19:50:37.469042182Z,0.013168,-0.077812,9.332599,-0.041146,-0.016778,-0.394148
2025-08-05T19:50:37.508775034Z,-1.107318,-0.318429,9.782708,0.028096,-0.014115,-0.262055
2025-08-05T19:50:37.528682606Z,-0.313640,0.154426,9.821015,0.005193,-0.028496,-0.010653
2025-08-05T19:50:37.548580231Z,0.044293,-0.119710,9.710583,0.005060,-0.014781,-0.016512
2025-08-05T19:50:37.568369885Z,0.232238,-0.721852,9.140763,0.052731,-0.033556,0.003728
2025-08-05T19:50:37.588257822Z,0.213084,0.104148,9.854235,-0.048336,-0.010120,-0.021838
2025-08-05T19:50:37.608135341Z,0.028730,-0.062249,9.691429,0.012916,-0.006924,-0.014381
2025-08-05T19:50:37.667769984Z,-2.863465,0.053870,9.672276,-0.048070,-0.030493,-0.078297
2025-08-05T19:50:37.687601150Z,-3.606865,0.231040,9.801562,-0.029428,-0.004527,-0.028229
2025-08-05T19:50:37.707479555Z,-2.790442,-0.653617,9.456798,-0.086020,0.012517,0.189084
2025-08-05T19:50:37.727364054Z,0.690727,-1.529895,10.313922,0.048869,0.016512,0.735564
2025-08-05T19:50:37.747430743Z,0.395043,-0.840365,9.748890,-0.145941,-0.050334,1.175518
2025-08-05T19:50:37.767134042Z,-0.700304,-0.638055,9.791986,0.015180,-0.047671,0.646082
2025-08-05T19:50:37.826731705Z,-1.965640,-0.481235,9.758467,-0.026365,-0.017976,0.945421
2025-08-05T19:50:37.846577141Z,-1.499967,-0.386664,9.926061,-0.059921,-0.003728,1.163800
2025-08-05T19:50:37.866653049Z,-0.962469,-0.641646,9.423279,0.010386,-0.034355,1.178714
2025-08-05T19:50:37.886311920Z,-0.834379,-0.417788,9.815928,0.010386,-0.027431,1.142495
2025-08-05T19:50:37.906251785Z,-0.859518,-0.276530,9.672276,-0.083756,-0.040879,1.182975
2025-08-05T19:50:37.926121909Z,-0.617704,-0.043096,9.538200,0.025433,0.011984,1.272457
2025-08-05T19:50:37.985665978Z,1.139640,-0.578200,9.633968,-0.007723,-0.056059,1.299089
2025-08-05T19:50:38.005541623Z,1.027112,-0.673968,10.203789,-0.008522,0.000133,1.065796
2025-08-05T19:50:38.025418101Z,0.721852,-0.599748,9.514258,-0.025433,-0.036219,1.086036
2025-08-05T19:50:38.045274787Z,0.943315,0.083797,9.906907,-0.037417,-0.032491,1.158474
2025-08-05T19:50:38.065178870Z,0.933739,-0.186748,9.945214,-0.007191,-0.007324,1.040230
2025-08-05T19:50:38.085006962Z,1.423353,-0.251391,9.887753,0.025167,-0.005726,0.898550
2025-08-05T19:50:38.144658220Z,2.268506,-0.826000,9.638757,0.026898,-0.003329,0.510794
2025-08-05T19:50:38.164512562Z,2.564190,-0.541090,9.619603,-0.060853,-0.000799,0.364853
2025-08-05T19:50:38.184398155Z,2.475605,-0.557849,10.021829,-0.010519,-0.001598,0.319046
2025-08-05T19:50:38.204288331Z,2.092532,-1.161188,9.748890,-0.028363,-0.008123,0.131560
2025-08-05T19:50:38.224136945Z,-0.930147,-0.134075,10.280403,0.084023,0.002264,-0.025034
2025-08-05T19:50:38.244024621Z,-0.239420,-0.542287,9.552566,-0.000000,-0.014514,-0.014381
2025-08-05T19:50:38.283727160Z,-0.096965,-0.198719,9.753678,-0.007856,-0.005859,-0.015446
2025-08-05T19:50:38.303636451Z,-0.079009,-0.210690,9.729736,-0.004794,-0.009321,-0.014381
2025-08-05T19:50:38.323490429Z,-0.049081,-0.201113,9.729736,-0.006791,-0.008123,-0.014381
2025-08-05T19:50:38.343342011Z,-0.065841,-0.153229,9.753678,-0.008655,-0.006392,-0.014381
2025-08-05T19:50:38.363252969Z,-0.481235,-0.034716,10.036194,-0.189750,0.054462,0.143278
2025-08-05T19:50:38.383160177Z,-0.756568,1.327585,8.743325,0.001332,-0.131960,0.787762
2025-08-05T19:50:38.442733829Z,-0.047884,0.393846,9.317934,-0.390419,0.017444,0.420246
2025-08-05T19:50:38.462593484Z,-1.235408,0.791284,9.044994,-0.243280,-0.015846,0.386158
2025-08-05T19:50:38.482476733Z,0.915782,0.780510,9.092878,-0.320911,-0.099735,0.338221
2025-08-05T19:50:38.502335347Z,0.369904,0.792481,9.657910,-0.437956,-0.050600,0.536360
2025-08-05T19:50:38.522216200Z,0.500388,0.640449,9.447221,-0.672181,-0.042211,0.477771
2025-08-05T19:50:38.601680810Z,0.810437,-2.369063,1.905485,-0.222640,0.026898,-0.241282
2025-08-05T19:50:38.621580101Z,3.185485,2.434903,9.715371,-0.344480,-0.114116,0.158192
2025-08-05T19:50:38.641423662Z,-1.735796,-5.754464,9.418490,-0.017444,0.059788,-0.029295
2025-08-05T19:50:38.661317432Z,0.824802,-7.869741,10.289980,0.013982,0.012384,0.123038
2025-08-05T19:50:38.681155889Z,-1.753753,-7.880515,8.159141,0.212786,0.023436,0.052731
2025-08-05T19:50:38.701112368Z,-1.883040,-5.084087,8.025064,0.199071,-0.011984,0.188019
2025-08-05T19:50:38.721121088Z,-1.470040,-3.740940,9.068936,0.198538,0.054728,0.094276
2025-08-05T19:50:38.760661281Z,0.262165,-2.718616,9.633968,-0.103464,-0.009987,0.104928
2025-08-05T19:50:38.780501196Z,0.305261,-2.093729,9.308357,-0.076033,-0.096273,0.183758
2025-08-05T19:50:38.800404029Z,-1.672350,-3.271677,11.156681,-0.216781,-0.152333,0.237021
2025-08-05T19:50:38.820286549Z,-0.047884,-2.412158,9.418490,-0.222507,-0.131560,0.120907
2025-08-05T19:50:38.840157506Z,-0.264559,-2.390610,10.151116,0.170043,0.107858,-0.079362
2025-08-05T19:50:38.860037578Z,0.840365,-2.070984,9.059360,0.200003,0.099070,-0.197606
2025-08-05T19:50:38.919638992Z,-0.288501,-2.572570,9.265262,-0.078164,0.023835,-0.130495
2025-08-05T19:50:38.939487345Z,0.213084,-2.493561,9.408914,0.043276,0.120641,-0.215716
2025-08-05T19:50:38.959370854Z,-0.013168,-1.981202,9.150340,0.275371,-0.001731,-0.167779
2025-08-05T19:50:38.979225926Z,-0.183156,-2.189497,8.767267,0.772849,-0.033023,-0.300937
2025-08-05T19:50:38.999096519Z,-0.895431,-2.870648,9.399337,1.265400,0.104529,-0.507598
2025-08-05T19:50:39.058720641Z,0.069432,-3.215413,9.250896,-0.395346,0.141147,-0.190150
2025-08-05T19:50:39.078620296Z,-0.113725,-2.018312,9.791986,0.005459,0.061253,-0.219977
2025-08-05T19:50:39.098443128Z,0.521936,-1.541866,9.533412,0.506266,0.016911,-0.288154
2025-08-05T19:50:39.118373305Z,-0.575805,-1.194707,8.083723,1.308010,-0.054462,-0.234225
2025-08-05T19:50:39.138291137Z,-0.638055,-3.117251,9.371803,1.324256,0.209457,-0.504802
2025-08-05T19:50:39.158100688Z,-0.037110,-3.458424,10.572795,0.353934,-0.059255,-0.196008
2025-08-05T19:50:39.217708195Z,0.051475,-0.936133,9.672575,0.726110,0.097738,-0.160855
2025-08-05T19:50:39.237564412Z,0.703895,-1.789666,10.611102,0.216248,0.077498,-0.134223
2025-08-05T19:50:39.257435786Z,0.239420,-1.364695,7.857770,0.911067,-0.044075,-0.192813
2025-08-05T19:50:39.277296952Z,-0.043096,-2.020706,9.629479,0.925448,-0.061253,-0.273773
2025-08-05T19:50:39.297175201Z,-0.602142,-2.592921,10.070012,0.632234,0.072837,-0.169377
2025-08-05T19:50:39.317049023Z,-0.277727,-1.669956,9.150639,0.573644,0.035819,-0.138484
2025-08-05T19:50:39.376634290Z,-0.515950,-2.741361,8.762778,0.751277,-0.024102,-0.189617
2025-08-05T19:50:39.396711135Z,-0.702698,-2.997540,9.088389,0.790825,-0.039814,-0.176834
2025-08-05T19:50:39.416424903Z,-1.399411,-1.701080,8.518570,0.492684,-0.061519,-0.025566
2025-08-05T19:50:39.436256329Z,0.634463,-2.264915,7.115568,1.873399,-0.002264,-0.017044
2025-08-05T19:50:39.456146401Z,0.499191,0.756568,2.221819,-0.711330,0.129563,-0.019175
2025-08-05T19:50:39.476026317Z,0.216675,1.300052,4.649539,-0.079895,0.024235,-0.049002
2025-08-05T19:50:39.515792502Z,-0.047884,1.084573,11.166556,-0.039148,-0.001997,-0.014914
2025-08-05T19:50:39.535646064Z,-0.172383,-0.582988,9.217676,0.067777,-0.011984,-0.008522
2025-08-05T19:50:39.555492698Z,-0.166397,-0.435745,9.653421,-0.095075,0.004927,-0.011718
2025-08-05T19:50:39.575388708Z,0.380678,-0.666785,9.246407,0.039681,-0.013982,0.001065
2025-08-05T19:50:39.595272998Z,5.395334,-2.246958,9.753978,-0.104396,0.094675,0.954476
2025-08-05T19:50:39.615123174Z,0.770933,-1.741782,9.394848,0.214118,0.042744,0.433562
2025-08-05T19:50:39.635203821Z,3.762488,-1.739388,8.935161,0.074302,-0.067911,-0.664724
2025-08-05T19:50:39.674702712Z,1.727417,-1.213860,9.586384,-0.006791,-0.005459,-0.852211
2025-08-05T19:50:39.694594816Z,2.091335,-1.201889,9.572019,-0.009055,-0.013316,-0.957672
2025-08-05T19:50:39.714499159Z,1.732205,-0.893037,9.849746,0.007457,-0.007723,-1.105744
2025-08-05T19:50:39.734356887Z,0.925359,-0.675165,10.184934,0.034887,-0.004927,-1.199487
2025-08-05T19:50:39.754224771Z,0.585382,-0.732626,9.677363,-0.013582,-0.011718,-1.310274
2025-08-05T19:50:39.774075572Z,-0.244209,-0.545878,9.289502,0.011052,0.018642,-1.192030
2025-08-05T19:50:39.833727350Z,-1.246182,-0.538695,9.955091,0.032491,-0.002929,-1.331579
2025-08-05T19:50:39.853573985Z,-1.829170,-0.618901,9.883265,0.041279,-0.026498,-1.362472
2025-08-05T19:50:39.873498380Z,-2.744952,-0.592565,9.433155,-0.009188,-0.009721,-1.302817
2025-08-05T19:50:39.893337462Z,-3.566164,-0.695516,9.481039,0.024501,-0.018509,-1.546763
2025-08-05T19:50:39.913208107Z,-4.145560,-0.084994,11.061212,0.017044,0.050334,-1.882321
2025-08-05T19:50:39.933055418Z,-3.235764,0.083797,9.275137,0.022504,0.030094,-1.971803
2025-08-05T19:50:39.972772020Z,-2.014721,0.972046,9.481039,0.018908,-0.014647,-1.307078
2025-08-05T19:50:39.992697509Z,-1.710657,1.312023,9.835381,-0.005593,-0.003462,-0.845819
2025-08-05T19:50:40.012562112Z,-1.280898,1.594538,9.528923,0.013049,-0.011851,-0.439954
2025-08-05T19:50:40.032619009Z,0.232238,1.385046,9.921572,-0.026365,-0.022237,-0.047937
2025-08-05T19:50:40.052411319Z,0.068235,-0.663194,9.332599,0.039947,-0.021971,-0.013848
2025-08-05T19:50:40.072315662Z,0.032322,-0.290895,9.725247,-0.052997,-0.001997,-0.014914
2025-08-05T19:50:40.092252714Z,-0.016759,0.049081,9.825504,-0.003728,-0.009188,-0.014381
2025-08-05T19:50:40.112119921Z,-0.007183,-0.112527,9.801562,-0.005593,-0.006791,-0.011185
2025-08-05T19:50:40.131788585Z,-0.014365,-0.360327,9.629180,-0.061386,-0.001198,-0.007989
2025-08-05T19:50:40.151628031Z,-0.035913,-0.258574,9.691429,0.007989,-0.010919,-0.013316
2025-08-05T19:50:40.171534249Z,0.217872,-0.507571,9.327511,0.082292,-0.022770,-0.007989
2025-08-05T19:50:40.191403332Z,0.946907,-2.729390,9.250896,-0.019707,-0.014914,0.410659
2025-08-05T19:50:40.211259810Z,0.345962,-3.356671,9.581296,-0.161521,-0.021838,0.795219
2025-08-05T19:50:40.231132173Z,-0.611719,-1.952471,9.940426,-0.035021,-0.022104,0.260457
2025-08-05T19:50:40.290955881Z,-0.609324,-1.227028,9.724948,0.018109,-0.003595,0.062318
2025-08-05T19:50:40.310819703Z,-0.226252,-1.368286,9.768044,-0.029961,0.004927,0.141147
2025-08-05T19:50:40.330468262Z,-0.215478,-1.411382,9.159917,-0.000932,0.009321,0.161387
2025-08-05T19:50:40.350330677Z,0.199916,-0.980426,9.882965,0.008522,-0.005992,0.068710
2025-08-05T19:50:40.370233770Z,0.311246,-1.282095,9.423279,0.000799,-0.018109,0.004794
2025-08-05T19:50:40.390130301Z,0.180762,-1.180341,9.557354,0.019308,-0.016645,0.025034
2025-08-05T19:50:40.449850153Z,-0.019154,-0.890643,9.603742,-0.073503,0.011851,0.031958
2025-08-05T19:50:40.469565379Z,0.010774,-0.341174,9.895834,-0.041812,-0.025699,-0.079895
2025-08-05T19:50:40.489451545Z,0.276530,-0.902614,8.483255,-0.132892,-0.007191,-0.157659
2025-08-05T19:50:40.509350367Z,0.135272,-0.714669,9.072228,-0.009321,-0.007989,-0.174703
2025-08-05T19:50:40.529201116Z,-0.015562,-0.158017,9.694721,-0.010519,-0.019574,-0.076699
2025-08-05T19:50:40.549042802Z,-0.373495,0.096965,9.531916,0.018243,0.020773,-0.138484
2025-08-05T19:50:40.588791540Z,0.110133,-0.021548,9.689933,-0.013848,-0.016112,-0.138484
2025-08-05T19:50:40.608675987Z,-0.215478,0.505177,9.819220,-0.035420,-0.016245,-0.131027
2025-08-05T19:50:40.628545850Z,-0.420182,0.598550,10.403405,0.135954,0.010519,0.022371
2025-08-05T19:50:40.648425714Z,0.481235,0.711078,10.049063,-0.000666,-0.011185,-0.115048
2025-08-05T19:50:40.668281671Z,0.056264,0.634463,9.460090,-0.057258,0.000000,-0.135288
2025-08-05T19:50:40.688144139Z,0.071826,1.148020,9.852738,0.001864,-0.000266,-0.157659
2025-08-05T19:50:40.708032857Z,-0.217872,1.059434,9.910199,0.007057,-0.007457,-0.060720
2025-08-05T19:50:40.767678489Z,-0.272939,1.817199,9.627684,0.101333,-0.019974,-0.181095
2025-08-05T19:50:40.787546217Z,-0.555455,0.810437,9.962872,0.027164,0.002397,-0.541154
2025-08-05T19:50:40.807390508Z,-0.222661,1.867477,9.814431,-0.068710,-0.026898,-0.795752
2025-08-05T19:50:40.827290059Z,-0.395043,2.092532,9.603742,0.131161,-0.019707,-0.965129
2025-08-05T19:50:40.847134453Z,0.409408,2.410961,9.440936,-0.168445,0.039681,-0.529436
2025-08-05T19:50:40.906788211Z,-0.140061,-0.350751,9.665991,0.018642,-0.010253,-0.012783
2025-08-05T19:50:40.926636408Z,0.067038,-0.311246,9.632472,-0.018775,-0.009055,-0.013848
2025-08-05T19:50:40.946458198Z,-0.784101,0.312443,10.163984,-0.139683,-0.017177,0.024501
2025-08-05T19:50:40.966330874Z,-3.180697,-1.065420,9.258977,-0.035154,0.006125,-0.144876
2025-08-05T19:50:40.986205217Z,-4.709395,0.924162,9.871892,-0.117179,-0.019841,-0.122505
2025-08-05T19:50:41.006074664Z,-3.458424,0.921768,9.584588,0.018376,-0.013449,0.471912
2025-08-05T19:50:41.065708890Z,-0.372298,0.387861,9.862315,-0.009854,-0.011185,0.534762
2025-08-05T19:50:41.085558961Z,-0.563834,0.664391,9.819220,-0.083490,0.014381,0.563524
2025-08-05T19:50:41.105688255Z,-0.530316,0.731429,9.364322,-0.019308,0.008123,0.629571
2025-08-05T19:50:41.125479211Z,0.164003,0.026336,9.804854,-0.065247,-0.004128,0.595482
2025-08-05T19:50:41.145185792Z,-0.199916,0.239420,9.991602,0.091346,-0.015979,0.679638
2025-08-05T19:50:41.165118677Z,-0.688333,-0.016759,9.929353,0.016112,-0.040613,0.671116
2025-08-05T19:50:41.204813456Z,-0.830788,0.125696,9.967660,0.096540,-0.024102,0.792556
2025-08-05T19:50:41.224679829Z,-0.846350,-0.064643,9.426571,-0.049135,-0.001198,0.844754
2025-08-05T19:50:41.244548026Z,-0.932542,-0.084994,9.445724,0.047138,0.010120,0.892691
2025-08-05T19:50:41.264399921Z,-0.421380,-0.383072,9.838373,-0.032224,-0.035420,0.873516
2025-08-05T19:50:41.284290045Z,-0.308852,-0.432153,9.886257,-0.022371,-0.023169,0.964063
2025-08-05T19:50:41.304174284Z,-0.660800,-0.837971,10.092158,-0.011851,-0.009587,0.941693
2025-08-05T19:50:41.324005761Z,-0.421380,-0.875081,9.914988,-0.055926,0.014914,1.042893
2025-08-05T19:50:41.383662436Z,0.592565,-0.799663,9.824008,-0.003862,-0.020773,0.922518
2025-08-05T19:50:41.403531987Z,1.046266,-1.039083,9.512762,-0.007457,0.015846,0.803209
2025-08-05T19:50:41.423371017Z,2.000355,-1.171962,9.785701,-0.035420,0.009854,0.625310
2025-08-05T19:50:41.443236453Z,2.451663,-1.392228,9.804854,0.010919,-0.024235,0.480434
2025-08-05T19:50:41.463122046Z,2.418144,-1.406593,9.498397,0.037151,-0.002929,0.376038
2025-08-05T19:50:41.522745178Z,1.924938,-1.669956,9.843162,0.002397,-0.014248,0.074568
2025-08-05T19:50:41.542629730Z,1.836353,-1.296460,9.756970,-0.029162,-0.004527,0.019175
2025-08-05T19:50:41.562499645Z,-0.554258,-0.178368,9.871892,0.056592,0.004394,-0.014914
2025-08-05T19:50:41.582348311Z,-0.180762,-0.415394,9.551069,-0.056725,-0.006525,-0.007457
2025-08-05T19:50:41.602222914Z,-0.011971,-0.134075,9.785701,0.008655,-0.005593,-0.015979
2025-08-05T19:50:41.622092309Z,-0.070629,-0.193930,9.709086,0.006924,-0.003063,-0.015979
2025-08-05T19:50:41.642069673Z,-0.076614,-0.287304,9.685144,0.001332,-0.005060,-0.019175
2025-08-05T19:50:41.681691170Z,2.823961,-1.564611,9.493608,0.047537,-0.011052,0.521979
2025-08-05T19:50:41.701574054Z,1.094150,-1.332373,9.613318,0.012117,-0.031159,0.275903
2025-08-05T19:50:41.721443553Z,1.029507,-1.142034,9.819220,0.068443,-0.030094,0.152333
2025-08-05T19:50:41.741337063Z,0.581791,-1.314417,9.517550,-0.008922,-0.032091,0.193878
2025-08-05T19:50:41.761192030Z,0.661997,-0.883460,9.785701,-0.070973,0.007057,-0.137419
2025-08-05T19:50:41.781074134Z,0.999579,-0.691924,9.579800,0.022237,-0.007057,-0.266316
2025-08-05T19:50:41.801006342Z,1.010353,-0.957681,9.761759,-0.001864,-0.003462,-0.358994
2025-08-05T19:50:41.840682891Z,0.714669,-1.043872,9.498397,-0.013715,-0.021039,-0.521979
2025-08-05T19:50:41.860561921Z,0.858321,-0.659603,9.747394,0.029162,-0.004661,-0.650876
2025-08-05T19:50:41.880459077Z,0.549469,-0.757765,9.685144,-0.001198,-0.014248,-0.728640
2025-08-05T19:50:41.900326076Z,0.622492,-0.707487,9.737817,-0.013982,-0.013982,-0.761663
2025-08-05T19:50:41.920194898Z,0.328006,-0.602142,10.025121,-0.018376,-0.021838,-0.786164
2025-08-05T19:50:41.940018563Z,0.390255,-0.750582,9.689933,-0.032890,-0.013449,-0.854341
2025-08-05T19:50:41.979789800Z,0.462081,-0.611719,9.685144,0.017577,0.019707,-1.019457
2025-08-05T19:50:41.999645185Z,0.357933,-0.349553,10.226234,0.003728,0.010120,-0.992826
2025-08-05T19:50:42.019540257Z,0.034716,-0.469264,9.632472,0.017843,0.000399,-0.972586
2025-08-05T19:50:42.039414495Z,0.351948,-0.186748,9.675568,0.029295,-0.036885,-1.006674
2025-08-05T19:50:42.059482486Z,0.035913,-0.342371,9.795278,-0.047271,0.015446,-1.084438
2025-08-05T19:50:42.079333339Z,0.322020,-0.114922,9.766547,-0.034355,0.014647,-1.107874
2025-08-05T19:50:42.099245911Z,0.011971,-0.345962,9.943718,-0.070041,0.000399,-1.152615
2025-08-05T19:50:42.138734542Z,-0.229843,-0.339977,9.929353,0.102132,-0.025167,-1.083373
2025-08-05T19:50:42.158616020Z,-0.101754,-0.679953,9.699510,-0.003728,0.016645,-1.112135
2025-08-05T19:50:42.178486769Z,-0.493206,-0.555455,9.479243,-0.034088,-0.018376,-1.103613
2025-08-05T19:50:42.198358039Z,-0.590171,-0.202310,9.733028,0.044075,0.001198,-1.054611
2025-08-05T19:50:42.218223163Z,-0.744597,-0.414197,9.967660,0.038616,-0.016378,-0.994956
2025-08-05T19:50:42.238099641Z,-0.715866,-0.492008,9.474455,0.039282,0.002264,-1.006674
2025-08-05T19:50:42.297701575Z,-1.276109,0.046687,9.819220,0.049268,-0.011185,-0.978977
2025-08-05T19:50:42.317583210Z,-1.364695,-0.120907,9.551069,-0.011185,-0.002796,-0.984303
2025-08-05T19:50:42.337435365Z,-0.982820,-0.126893,9.814431,-0.061785,0.024767,-0.874581
2025-08-05T19:50:42.357318093Z,-1.113304,-0.055067,9.536704,-0.006658,-0.009587,-0.726510
2025-08-05T19:50:42.377186863Z,-1.308431,0.211887,9.833585,0.005593,0.013982,-0.651941
2025-08-05T19:50:42.397086831Z,-2.090138,0.707487,9.575011,-0.000399,0.002663,-0.477238
2025-08-05T19:50:42.456709599Z,-2.483984,0.738611,9.857527,-0.038749,-0.012117,-0.206661
2025-08-05T19:50:42.476558837Z,-2.378639,0.344765,9.795278,-0.020773,-0.001997,-0.067112
2025-08-05T19:50:42.496438076Z,0.814029,-0.387861,9.632472,-0.001864,0.002796,-0.004261
2025-08-05T19:50:42.516312470Z,-0.114922,-0.155623,9.761759,-0.005992,0.003995,-0.014914
2025-08-05T19:50:42.536165875Z,-0.038307,-0.150835,9.747394,-0.000133,-0.014115,-0.012783
2025-08-05T19:50:42.556025322Z,0.080206,-0.186748,9.718663,-0.003995,-0.006258,-0.014914
2025-08-05T19:50:42.615647361Z,-0.225055,1.564611,9.958083,-0.142346,0.037817,-0.360059
2025-08-05T19:50:42.635501026Z,0.934936,2.481590,9.967660,-0.030626,-0.021838,-0.676442
2025-08-05T19:50:42.655417661Z,0.314838,1.824382,9.029133,0.138484,-0.024235,-0.249272
2025-08-05T19:50:42.675247628Z,-0.487220,1.237802,9.575011,-0.013449,-0.031292,-0.246076
2025-08-05T19:50:42.695157336Z,0.197522,1.035492,8.052299,-0.003462,-0.027297,-0.127832
2025-08-05T19:50:42.715007512Z,0.143652,1.640028,8.794501,-0.054994,0.026498,-0.060720
2025-08-05T19:50:42.754976669Z,-0.220267,0.482432,10.237606,-0.105994,0.012251,-0.203465
2025-08-05T19:50:42.774629134Z,0.410606,0.536301,10.395624,0.080827,-0.012384,-0.174703
2025-08-05T19:50:42.794482695Z,-0.214281,0.047884,10.146626,0.075900,0.021971,-0.058589
2025-08-05T19:50:42.814385840Z,0.381875,0.445322,9.868899,0.064981,-0.005726,-0.051133
2025-08-05T19:50:42.834220391Z,0.313640,0.701501,9.184157,0.082425,-0.022371,-0.070307
2025-08-05T19:50:42.854104734Z,0.432153,-0.123301,10.204087,-0.073370,-0.019042,-0.042611
2025-08-05T19:50:42.913750783Z,0.322020,-0.351948,10.156203,0.038749,-0.010786,-0.142745
2025-08-05T19:50:42.933623459Z,0.173580,-0.656011,9.490616,-0.079762,0.017311,-0.180030
2025-08-05T19:50:42.953450041Z,0.029928,-0.427365,9.279925,0.051266,-0.009587,-0.165116
2025-08-05T19:50:42.973332040Z,-0.561440,-1.145625,11.214440,0.208792,-0.032091,0.045806
2025-08-05T19:50:42.993243779Z,-0.283713,-0.842759,9.519346,0.012650,-0.002397,-0.052198
2025-08-05T19:50:43.013067913Z,0.011971,-1.132457,9.811439,-0.108524,0.004661,-0.185356
2025-08-05T19:50:43.072715004Z,-0.073023,-1.799243,9.490616,-0.013449,-0.026365,-0.121440
2025-08-05T19:50:43.092572784Z,-0.295684,-2.355895,9.519346,-0.033955,-0.016112,-0.055394
2025-08-05T19:50:43.112444314Z,0.046687,-2.196680,9.792285,-0.054328,-0.012384,0.071373
2025-08-05T19:50:43.132311834Z,-0.226252,-2.090138,10.031705,-0.023036,-0.011851,0.112918
2025-08-05T19:50:43.152375502Z,0.179565,-1.678335,9.619903,0.003728,-0.008522,0.071373
2025-08-05T19:50:43.172389117Z,0.460884,-2.231396,9.471462,0.085088,-0.014381,0.184291
2025-08-05T19:50:43.192148563Z,-0.107739,-0.094571,9.892841,0.074968,-0.009854,0.041545
2025-08-05T19:50:43.231670006Z,-3.338714,-0.718261,9.648633,-0.038616,0.006791,-0.459129
2025-08-05T19:50:43.251524713Z,-3.157952,-0.469264,9.562442,-0.009854,-0.001731,-0.414388
2025-08-05T19:50:43.271416660Z,-2.146402,-0.318429,9.787497,0.038749,0.004794,-0.131027
2025-08-05T19:50:43.291258607Z,-1.389834,-1.247379,9.825804,-0.001864,0.015979,0.453802
2025-08-05T19:50:43.311130762Z,-1.508347,-0.912191,9.572019,-0.041678,-0.006258,0.791491
2025-08-05T19:50:43.370799520Z,-2.048239,-0.606930,9.715671,-0.008922,0.034754,0.879908
2025-08-05T19:50:43.390647716Z,-1.479617,-1.018733,9.610326,-0.067112,0.008522,0.999217
2025-08-05T19:50:43.410535445Z,-1.122881,-0.933739,9.524135,0.137419,-0.052997,1.049285
2025-08-05T19:50:43.430416558Z,-1.249773,-0.772130,10.031705,0.073237,0.021305,1.035436
2025-08-05T19:50:43.450237619Z,-1.234211,-0.866701,9.567230,-0.056725,-0.014781,1.099352
2025-08-05T19:50:43.470133264Z,-0.839168,-0.775721,9.821015,0.011851,0.004927,1.138767
2025-08-05T19:50:43.529712230Z,-0.464475,-0.621295,9.777920,0.023702,-0.050201,1.359276
2025-08-05T19:50:43.549624698Z,0.043096,-0.493206,9.337387,0.027431,-0.010519,1.339036
2025-08-05T19:50:43.569763835Z,0.335188,-0.488417,11.262324,-0.030227,0.011718,1.241032
2025-08-05T19:50:43.589361508Z,0.486023,-0.802058,9.639056,-0.063783,-0.001731,1.260207
2025-08-05T19:50:43.609197934Z,0.846350,-0.872687,9.730036,-0.032757,-0.017976,1.290034
2025-08-05T19:50:43.629052068Z,0.843956,-0.853533,9.672575,0.003063,-0.029295,1.262337
2025-08-05T19:50:43.688754264Z,1.255759,-0.146046,9.749189,0.005593,-0.022637,1.160072
2025-08-05T19:50:43.708613763Z,1.017536,-0.488417,9.701305,-0.023436,-0.005193,1.049285
2025-08-05T19:50:43.728459147Z,1.665167,-0.180762,10.137050,0.011052,-0.035287,0.856472
2025-08-05T19:50:43.748324323Z,1.891419,-0.252588,9.605537,-0.010120,0.015313,0.639158
2025-08-05T19:50:43.768216686Z,2.127248,-0.167594,9.710583,-0.021971,-0.022237,0.434095
2025-08-05T19:50:43.788078842Z,1.733402,-0.361524,9.667487,0.017444,-0.042211,0.333960
2025-08-05T19:50:43.827780443Z,3.300407,0.280122,9.739313,0.008788,-0.008655,0.377636
2025-08-05T19:50:43.847661609Z,2.953248,0.093374,9.911695,0.007856,-0.008389,0.541686
2025-08-05T19:50:43.867538191Z,2.349909,-0.451307,9.830293,0.002530,0.004927,0.427703
2025-08-05T19:50:43.887442222Z,2.045845,-0.780510,9.796774,-0.004527,0.001465,0.168844
2025-08-05T19:50:43.907280158Z,0.274136,-0.805649,9.226954,0.033822,0.031292,-0.033556
2025-08-05T19:50:43.927151272Z,-0.169988,-0.021548,9.830293,-0.048070,0.008788,-0.018642
2025-08-05T19:50:43.947020198Z,-0.169988,-0.005986,9.839869,0.011318,-0.011318,-0.014381
2025-08-05T19:50:43.986733258Z,-0.077812,-0.250194,9.715371,-0.005992,-0.006791,-0.014381
2025-08-05T19:50:44.006640101Z,-0.062249,-0.207098,9.724948,-0.011052,-0.009188,-0.014381
2025-08-05T19:50:44.026670695Z,0.032322,0.175974,9.863811,-0.073770,0.011718,-0.015446
2025-08-05T19:50:44.046383734Z,-0.379481,0.270545,10.222942,-0.039148,-0.047271,-0.116646
2025-08-05T19:50:44.066452767Z,-0.712275,0.695516,9.945214,-0.249005,0.036618,-0.534230
2025-08-05T19:50:44.086147159Z,1.623269,1.526304,10.222942,-0.118910,0.001731,-0.604537
2025-08-05T19:50:44.145722583Z,1.344344,2.470816,9.384972,0.010919,-0.036219,-0.283893
2025-08-05T19:50:44.165593853Z,0.780510,1.521515,10.108020,0.009055,-0.042611,-0.316916
2025-08-05T19:50:44.185483300Z,0.535104,0.793678,10.050559,-0.013848,-0.018509,-0.422377
2025-08-05T19:50:44.205367070Z,0.539892,0.574608,9.354745,0.101333,0.018376,-0.465520
2025-08-05T19:50:44.225225839Z,0.673968,-0.084994,9.646837,-0.033556,0.005193,-0.604004
2025-08-05T19:50:44.245085494Z,0.141258,-0.474052,10.068216,-0.133025,0.010519,-0.607200
2025-08-05T19:50:44.324546615Z,-1.297657,-2.252944,9.067440,0.177500,-0.043676,-0.925714
2025-08-05T19:50:44.344419551Z,-0.930147,-1.910573,9.771336,-0.048736,-0.015713,-1.278316
2025-08-05T19:50:44.364364208Z,0.288501,-0.081403,9.421782,-0.169377,0.010786,-1.440236
2025-08-05T19:50:44.384206935Z,0.135272,0.529119,9.680356,-0.123704,0.003063,-1.160072
2025-08-05T19:50:44.404096174Z,0.368707,-0.035913,9.991602,-0.218113,-0.002530,-0.759533
2025-08-05T19:50:44.444003247Z,0.172383,-1.188721,9.105747,0.482831,0.000932,-0.656202
2025-08-05T19:50:44.463673108Z,-0.423774,-1.602918,8.842385,-0.131294,0.016112,-0.578438
2025-08-05T19:50:44.483549690Z,0.453701,-1.575385,10.465654,0.064848,-0.019707,-0.512392
2025-08-05T19:50:44.503418460Z,-0.484826,-2.776077,10.044274,0.078563,-0.007057,-0.400539
2025-08-05T19:50:44.523299470Z,-1.458069,-3.011906,9.752182,0.044608,-0.004394,-0.285491
2025-08-05T19:50:44.543141260Z,-1.679533,-2.688689,9.440936,-0.053263,-0.015979,-0.223705
2025-08-05T19:50:44.563239407Z,-2.431312,-2.601300,10.173561,-0.087751,0.038083,-0.336623
2025-08-05T19:50:44.602763715Z,0.040701,-0.514753,9.211093,-0.013183,-0.027697,0.017044
2025-08-05T19:50:44.622647641Z,0.065841,0.317232,10.274118,0.103464,-0.021838,0.017044
2025-08-05T19:50:44.642511515Z,-0.008380,-0.324414,9.589376,-0.009188,-0.007723,-0.011718
2025-08-05T19:50:44.662389608Z,-0.015562,-0.113725,9.785701,-0.009987,-0.009188,-0.012783
2025-08-05T19:50:44.682267180Z,0.162806,-0.034716,9.766547,0.003862,-0.007723,0.003196
2025-08-05T19:50:44.702137877Z,1.740585,-1.318008,8.631696,0.135288,-0.018775,0.118244
2025-08-05T19:50:44.722063314Z,2.087744,-2.369063,9.115324,0.186155,0.007457,-0.043676
2025-08-05T19:50:44.761768301Z,2.841918,-0.064643,9.632472,0.019974,0.006924,-0.724379
2025-08-05T19:50:44.781589675Z,2.252944,0.035913,9.809643,-0.012384,-0.022104,-0.631701
2025-08-05T19:50:44.801487090Z,2.177526,-0.073023,9.814431,-0.085221,-0.001065,-0.657268
2025-08-05T19:50:44.821346016Z,1.720234,-0.415394,9.584588,-0.066845,-0.025300,-0.644484
2025-08-05T19:50:44.841217078Z,1.909376,-0.518345,9.675568,-0.042078,-0.000266,-0.660463
2025-08-05T19:50:44.861082618Z,1.853112,-0.471658,9.594165,0.058589,-0.039548,-0.583764
2025-08-05T19:50:44.920693094Z,1.308431,-0.628478,9.407417,-0.037551,-0.022104,-0.859668
2025-08-05T19:50:44.940556708Z,0.962469,-0.287304,9.737817,0.041678,0.002796,-1.023718
2025-08-05T19:50:44.960522250Z,0.739808,0.071826,10.077793,0.065381,-0.026898,-1.247424
2025-08-05T19:50:44.980482895Z,0.288501,-0.751779,9.704298,-0.177500,-0.032091,-1.290034
2025-08-05T19:50:45.000171299Z,-0.019154,-0.488417,9.704298,0.040746,-0.019175,-1.257011
2025-08-05T19:50:45.020071371Z,-0.426168,-0.858321,9.445724,-0.006258,0.005726,-1.159007
2025-08-05T19:50:45.059784014Z,-1.303643,-1.389834,9.709086,-0.013316,0.013183,-1.137701
2025-08-05T19:50:45.079709712Z,-1.143231,-0.916979,10.326791,-0.035686,0.028895,-1.132375
2025-08-05T19:50:45.099546294Z,-0.814029,-0.470461,9.871892,0.011718,0.012916,-0.670051
2025-08-05T19:50:45.119408813Z,-0.525527,-0.335188,9.847950,0.023436,-0.008123,-0.258859
2025-08-05T19:50:45.139278833Z,-0.948104,-0.683545,9.661202,0.018109,-0.015979,-0.034088
2025-08-05T19:50:45.159174530Z,-1.710657,-0.617704,10.025121,0.067777,-0.013183,-0.040480
2025-08-05T19:50:45.179049446Z,-1.699883,-0.739808,9.436148,0.021172,-0.019974,0.131027
2025-08-05T19:50:45.218778600Z,-2.427721,-0.878672,9.776124,-0.020240,-0.015180,0.762729
2025-08-05T19:50:45.238634088Z,-2.185906,-2.302025,9.756970,0.112652,-0.036352,0.591221
2025-08-05T19:50:45.258506087Z,-1.393425,-1.734599,9.728240,-0.020906,-0.007723,0.314253
2025-08-05T19:50:45.278422149Z,-1.193510,-1.328782,9.594165,-0.048469,-0.027164,0.307861
2025-08-05T19:50:45.298233054Z,-1.015141,-0.905008,9.603742,-0.016512,-0.006791,0.366451
2025-08-05T19:50:45.318106199Z,-1.193510,-0.918176,9.728240,0.002663,-0.019974,0.418649
2025-08-05T19:50:45.397594559Z,0.027533,-0.005986,10.197504,0.000399,-0.020107,0.308926
2025-08-05T19:50:45.417453224Z,-0.463278,-0.073023,9.806051,0.019841,-0.003728,0.127299
2025-08-05T19:50:45.437364286Z,-0.221464,0.044293,9.758167,-0.132892,-0.012783,0.103863
2025-08-05T19:50:45.457306963Z,-0.960075,-0.049081,9.197925,-0.060853,-0.025167,0.176301
2025-08-05T19:50:45.477098857Z,-0.727837,0.162806,9.705495,0.004128,-0.012251,0.207194
2025-08-05T19:50:45.536692510Z,-1.114501,0.519542,9.853935,-0.019042,-0.004527,0.327569
2025-08-05T19:50:45.556589822Z,-0.786495,0.483629,10.280104,0.061785,-0.006924,0.419181
2025-08-05T19:50:45.576638021Z,-0.514753,0.316035,9.901819,-0.076033,0.014115,0.468183
2025-08-05T19:50:45.596340695Z,-0.001197,0.711078,9.700706,-0.057125,-0.019441,0.548078
2025-08-05T19:50:45.616362227Z,0.241814,1.001973,9.671976,0.023303,-0.006258,0.333960
2025-08-05T19:50:45.636036203Z,0.660800,1.490391,9.968858,0.034222,-0.017843,-0.088950
2025-08-05T19:50:45.695678554Z,1.379060,2.341529,9.930551,-0.003329,-0.007057,-0.994424
2025-08-05T19:50:45.715572324Z,1.140837,2.158373,9.758167,-0.010386,0.007723,-0.305198
2025-08-05T19:50:45.735414427Z,0.199916,-0.752976,9.466075,-0.051532,-0.030227,-0.009055
2025-08-05T19:50:45.755313093Z,0.128090,0.087388,9.815628,-0.024767,-0.001065,-0.015446
2025-08-05T19:50:45.775191863Z,-0.055067,0.014365,9.839570,0.017444,-0.007590,-0.017577
2025-08-05T19:50:45.795028080Z,0.041899,-0.122104,9.748590,0.017311,-0.006392,-0.017577
2025-08-05T19:50:45.834777234Z,-0.074220,-0.137667,9.729437,-0.036086,-0.010386,-0.010120
2025-08-05T19:50:45.854672671Z,-0.155623,-0.277727,9.580697,0.068976,-0.015446,-0.012783
2025-08-05T19:50:45.874542222Z,-0.901417,-0.598550,9.810541,-0.005859,0.024901,0.392017
2025-08-05T19:50:45.894396565Z,-1.918953,0.186748,9.762657,0.041412,-0.030094,0.380299
2025-08-05T19:50:45.914243199Z,-1.996764,0.881066,9.757869,0.005193,0.012916,0.210922
2025-08-05T19:50:45.934113218Z,-1.404199,0.082600,9.800964,-0.002264,0.001465,0.281230
2025-08-05T19:50:45.954006780Z,-0.697910,0.274136,9.240721,-0.034222,0.013582,0.250337
2025-08-05T19:50:45.993785206Z,-2.246958,0.147243,9.231144,0.006392,-0.010919,0.329166
2025-08-05T19:50:46.013611787Z,-2.585738,0.047884,9.494506,0.004128,-0.021305,0.467651
2025-08-05T19:50:46.033463057Z,-2.595315,-0.306458,9.211990,-0.037284,-0.023436,0.676442
2025-08-05T19:50:46.053381723Z,-2.828749,-0.034716,10.064326,0.026765,-0.032224,0.821318
2025-08-05T19:50:46.073262316Z,-2.161964,0.079009,9.599851,0.026765,-0.007457,1.063133
2025-08-05T19:50:46.093130148Z,-1.720234,-0.112527,9.992500,0.017577,0.000133,1.198421
2025-08-05T19:50:46.152733072Z,-1.070208,-0.398635,9.714772,-0.006924,-0.001332,1.275120
2025-08-05T19:50:46.172633821Z,-0.890643,-0.264559,10.121787,-0.020240,0.030626,1.334775
2025-08-05T19:50:46.192465455Z,-1.045069,-0.512359,9.346066,0.093077,0.004128,1.419996
2025-08-05T19:50:46.212308756Z,-0.350751,-0.741005,9.417892,-0.063516,0.018243,1.506283
2025-08-05T19:50:46.232206953Z,0.064643,-0.764947,9.753080,-0.108124,-0.013982,1.510544
2025-08-05T19:50:46.252096869Z,0.360327,-0.810437,9.791388,-0.023169,-0.031425,1.399756
2025-08-05T19:50:46.311679741Z,0.833182,-0.993594,9.853637,0.008256,-0.014647,1.320927
2025-08-05T19:50:46.331748148Z,1.106121,-0.943315,9.877579,-0.016245,-0.024634,1.265533
2025-08-05T19:50:46.351402176Z,1.466449,-0.726640,9.528025,-0.013848,-0.028363,1.180312
2025-08-05T19:50:46.371298029Z,2.061408,-1.003170,9.451410,-0.036885,0.000133,0.999217
2025-08-05T19:50:46.391192893Z,2.375048,-1.169568,9.638158,-0.045939,-0.006924,0.736097
2025-08-05T19:50:46.411035048Z,2.408567,-1.403002,9.475352,0.015180,0.004128,0.560329
2025-08-05T19:50:46.450775296Z,1.849521,-1.150414,9.863214,-0.014381,-0.017843,0.431432
2025-08-05T19:50:46.470673701Z,1.130063,-0.818817,9.858425,-0.010519,-0.017311,0.499609
2025-08-05T19:50:46.490538148Z,0.890643,-0.657208,9.748292,0.024102,-0.004927,0.619983
2025-08-05T19:50:46.510389991Z,1.164779,-0.517148,9.729137,-0.013982,-0.015979,0.692421
2025-08-05T19:50:46.530495117Z,1.118092,-0.796072,9.767446,-0.028895,-0.010253,0.730771
2025-08-05T19:50:46.550147166Z,1.786075,-0.636858,9.700407,0.001997,-0.004927,0.721183
2025-08-05T19:50:46.570013800Z,1.304840,-0.925359,9.944616,-0.270177,0.060454,0.059655
2025-08-05T19:50:46.609755090Z,2.917335,1.449689,9.279028,0.050866,-0.006658,-0.514522
2025-08-05T19:50:46.629628703Z,3.281253,1.697489,9.638158,-0.027564,-0.009188,-0.447411
2025-08-05T19:50:46.649794039Z,2.114080,0.749385,10.002077,0.032357,-0.008655,-0.459129
2025-08-05T19:50:46.669347388Z,1.947683,0.205901,10.059538,0.061253,-0.027564,-0.566720
2025-08-05T19:50:46.689196783Z,1.296460,-0.142455,9.911098,0.033289,-0.007191,-0.578438
2025-08-05T19:50:46.709079459Z,0.942118,0.248997,9.815330,0.062717,0.017311,-0.611461
2025-08-05T19:50:46.788586466Z,0.754174,-0.342371,9.422680,0.151800,-0.037950,-1.182443
2025-08-05T19:50:46.808469558Z,0.810437,-0.105345,8.575132,0.015313,-0.008256,-1.309209
2025-08-05T19:50:46.828317495Z,-0.366313,-0.599748,10.069115,0.069508,0.007057,-1.356080
2025-08-05T19:50:46.848222202Z,-0.626084,-1.590947,10.284593,-0.077232,0.024767,-1.822666
2025-08-05T19:50:46.868100712Z,-0.031125,-0.572214,10.107422,-0.094010,0.009188,-1.938780
2025-08-05T19:50:46.927707334Z,-0.884658,-1.857901,10.715549,0.071373,0.009454,-1.104678
2025-08-05T19:50:46.947733501Z,-0.714669,-2.541445,9.231144,0.087085,-0.037950,-1.007739
2025-08-05T19:50:46.967417112Z,-1.119289,-2.899378,9.935040,0.035154,0.000399,-0.961933
2025-08-05T19:50:46.987273799Z,-1.466449,-2.723404,9.738714,0.120508,-0.019974,-0.938497
2025-08-05T19:50:47.007148402Z,-1.906982,-2.343924,10.067918,-0.021838,-0.022237,-0.450606
2025-08-05T19:50:47.027021911Z,-3.060987,-2.206257,10.398317,0.070174,0.019841,-0.143811
2025-08-05T19:50:47.066787889Z,-2.545036,-0.290895,9.225159,0.065647,-0.024901,0.038349
2025-08-05T19:50:47.086676607Z,0.823605,0.203507,9.627384,-0.105727,0.006258,-0.019175
2025-08-05T19:50:47.106547199Z,-0.001197,0.002394,9.952995,0.070174,0.001332,-0.013848
2025-08-05T19:50:47.126396438Z,-0.140061,-0.517148,9.512463,-0.008922,-0.011185,-0.013848
2025-08-05T19:50:47.146261613Z,0.076614,-0.124498,9.780613,-0.030227,-0.008389,-0.014914
2025-08-05T19:50:47.166169082Z,0.092177,0.343568,10.010457,-0.065247,-0.007856,-0.015979
2025-08-05T19:50:47.186059675Z,-0.392649,0.074220,9.148544,0.087618,0.024767,0.001065
2025-08-05T19:50:47.225753047Z,-4.973954,-0.287304,9.330503,0.046472,-0.028496,-0.153398
2025-08-05T19:50:47.245618796Z,-4.268862,0.988805,9.632173,0.013715,0.021438,0.189617
2025-08-05T19:50:47.265496732Z,-2.303222,0.214281,9.957784,-0.019175,0.001864,0.733967
2025-08-05T19:50:47.285357221Z,-1.270124,-0.653617,9.603442,-0.026632,0.013982,0.781903
2025-08-05T19:50:47.305217449Z,-0.296881,-0.535104,9.794978,-0.004927,0.018642,0.658333
2025-08-05T19:50:47.325082625Z,-0.887052,-0.492008,9.699210,-0.069508,-0.030759,0.632767
2025-08-05T19:50:47.384707997Z,0.106542,-0.555455,9.809343,0.051798,0.019308,0.559263
2025-08-05T19:50:47.404586142Z,0.664391,-0.634463,10.039187,-0.037018,-0.009321,0.483630
2025-08-05T19:50:47.444330660Z,0.620098,-0.617704,9.790190,-0.002131,-0.015579,0.330232
2025-08-05T19:50:47.464226201Z,0.841562,-0.402226,9.909900,-0.044342,-0.006258,0.319579
2025-08-05T19:50:47.484083721Z,1.017536,-0.278924,9.828497,-0.019974,0.019175,0.372842
2025-08-05T19:50:47.504053013Z,1.207875,-0.107739,9.852439,-0.009721,-0.000533,0.499609
2025-08-05T19:50:47.524020950Z,0.969652,-0.635661,9.450213,-0.017710,-0.025833,0.506000
2025-08-05T19:50:47.543905762Z,1.248576,-0.565032,9.766248,-0.024102,-0.019175,0.409061
2025-08-05T19:50:47.563777188Z,1.296460,-0.368707,9.703999,-0.015446,-0.006658,0.344080
2025-08-05T19:50:47.583410851Z,0.849942,-0.383072,9.852439,-0.029295,0.000799,0.270577
2025-08-05T19:50:47.603317381Z,0.824802,-0.421380,9.574712,-0.070840,0.017311,0.175768
2025-08-05T19:50:47.623147453Z,1.100136,-0.282516,9.742306,-0.011052,-0.011318,0.156594
2025-08-05T19:50:47.643065390Z,1.660379,-0.075417,9.938630,0.041412,-0.027830,0.116114
2025-08-05T19:50:47.702672324Z,-0.700304,-0.087388,9.885659,-0.097472,0.014248,0.002131
2025-08-05T19:50:47.722509896Z,-0.179565,0.099359,9.900024,0.047671,-0.022504,-0.010653
2025-08-05T19:50:47.742415593Z,0.148441,-0.804452,9.057265,0.028229,-0.033423,0.004261
2025-08-05T19:50:47.762281342Z,1.209072,-1.547851,10.105926,0.168578,0.047005,0.090547
2025-08-05T19:50:47.782109851Z,2.744952,-2.000355,9.181764,0.113717,-0.011185,0.576308
2025-08-05T19:50:47.802010131Z,1.562217,-1.675941,9.890448,0.034355,-0.004261,0.496413
2025-08-05T19:50:47.841810692Z,1.951274,-1.021127,9.684546,0.010519,-0.021438,-0.035154
2025-08-05T19:50:47.861650764Z,1.327585,-0.452504,9.627085,-0.031958,-0.010786,-0.177899
2025-08-05T19:50:47.881487815Z,1.036689,-0.430956,9.526528,-0.008522,-0.018376,-0.319579
2025-08-05T19:50:47.901345907Z,0.622492,-0.618901,10.014946,-0.014647,0.000666,-0.393082
2025-08-05T19:50:47.921227958Z,0.650026,-1.058237,9.722853,0.063117,-0.026498,-0.383495
2025-08-05T19:50:47.941096624Z,0.976834,-1.600524,9.713276,0.019974,-0.013183,-0.542219
2025-08-05T19:50:47.961020030Z,0.843956,-1.875857,9.435549,0.026765,0.001332,-0.823449
2025-08-05T19:50:47.981125365Z,1.108515,-1.406593,9.856929,0.020773,0.022903,-1.062068
2025-08-05T19:50:48.000721892Z,1.501164,-1.083376,9.679757,-0.140215,-0.026498,-0.969390
2025-08-05T19:50:48.020583318Z,1.047463,-0.812831,9.277532,-0.040480,-0.028096,-0.990695
2025-08-05T19:50:48.040509224Z,0.930147,-0.660800,9.923966,0.096540,-0.044475,-1.023718
2025-08-05T19:50:48.060391275Z,0.712275,-0.840365,10.053253,-0.086153,-0.004261,-1.137701
2025-08-05T19:50:48.080239263Z,0.714669,-0.885855,9.239224,-0.078164,0.004794,-1.269794
2025-08-05T19:50:48.100074907Z,0.559046,-0.427365,9.933543,0.046339,0.041812,-1.401887
2025-08-05T19:50:48.159690852Z,1.017536,0.325611,9.378088,0.114116,0.022237,-1.362472
2025-08-05T19:50:48.179595039Z,0.257377,-0.211887,9.526528,-0.084955,-0.012384,-1.211205
2025-08-05T19:50:48.199625842Z,-0.325611,-0.770933,9.598354,0.030626,0.027164,-1.263403
2025-08-05T19:50:48.219506539Z,0.122104,-0.675165,9.493010,0.081493,-0.036752,-1.233575
2025-08-05T19:50:48.239213953Z,-0.196325,-0.411803,9.627085,0.011851,0.028229,-1.110005
2025-08-05T19:50:48.259060430Z,-0.477643,-0.845153,9.133880,-0.019707,-0.005593,-0.994956
2025-08-05T19:50:48.298807033Z,-1.628057,-0.857124,10.393229,0.146607,0.021305,-1.076981
2025-08-05T19:50:48.318670229Z,-1.589750,-1.010353,10.062830,-0.139949,-0.007590,-1.144093
2025-08-05T19:50:48.338543999Z,-1.983596,-0.381875,9.574412,-0.025034,-0.027031,-1.131310
2025-08-05T19:50:48.358443499Z,-1.787272,0.008380,9.248801,-0.070041,0.026898,-1.194160
2025-08-05T19:50:48.378262580Z,-2.290054,0.302867,10.163386,0.020773,0.005326,-1.090830
2025-08-05T19:50:48.398143069Z,-2.655170,0.252588,9.938332,0.007723,-0.018908,-1.070590
2025-08-05T19:50:48.477654659Z,-2.634819,0.749385,9.866506,0.002929,-0.015313,-0.777642
2025-08-05T19:50:48.497536085Z,-2.489970,0.683545,9.646238,-0.013715,-0.015846,-0.599743
2025-08-05T19:50:48.517404386Z,-2.299631,0.727837,9.411607,-0.019308,-0.005593,-0.357929
2025-08-05T19:50:48.537247478Z,-2.105700,0.735020,9.732430,0.001465,-0.015713,-0.087352
2025-08-05T19:50:48.557109321Z,0.470461,-0.616507,9.746795,-0.057391,0.010919,-0.019175
2025-08-05T19:50:48.577002831Z,-0.110133,0.098162,9.871294,-0.013049,-0.005326,-0.015979
2025-08-05T19:50:48.616724641Z,-3.029862,-2.043451,10.115502,0.058323,-0.067112,-0.073503
2025-08-05T19:50:48.636631484Z,-3.944447,-1.752556,9.780313,0.025433,-0.002397,-0.480434
2025-08-05T19:50:48.656463743Z,-2.975993,-0.592565,9.698911,0.019308,0.018775,0.134223
2025-08-05T19:50:48.676328658Z,-1.958457,-0.899023,9.617508,-0.017177,0.001065,0.586960
2025-08-05T19:50:48.696186022Z,-1.514333,-0.695516,9.765948,0.012251,0.007324,0.758468
2025-08-05T19:50:48.716051302Z,-1.472434,-0.173580,9.607931,0.000932,-0.022637,0.608265
2025-08-05T19:50:48.755830769Z,-1.877054,0.035913,9.871294,-0.055527,-0.004927,0.927845
2025-08-05T19:50:48.775685945Z,-1.071405,-0.158017,9.612720,0.044741,-0.003196,0.973651
2025-08-05T19:50:48.795575757Z,-1.247379,-0.523133,9.765948,-0.038882,-0.010519,1.062068
2025-08-05T19:50:48.815432078Z,-0.864307,-0.052672,9.823410,0.002929,-0.006924,1.005609
2025-08-05T19:50:48.835323036Z,-0.908600,-0.289698,9.641450,0.028496,-0.081493,1.048219
2025-08-05T19:50:48.855186649Z,-0.815226,-0.174777,9.933543,0.006791,-0.017044,1.062068
2025-08-05T19:50:48.875063440Z,-0.404620,-0.208296,9.828198,-0.056992,0.006924,1.141963
2025-08-05T19:50:48.914770979Z,-0.304064,-0.531513,9.071630,0.023835,-0.058456,1.165398
2025-08-05T19:50:48.934683864Z,0.007183,-0.638055,9.258378,-0.108257,-0.016378,1.176051
2025-08-05T19:50:48.954552686Z,0.313640,-0.480037,8.846576,0.008788,-0.012916,1.123853
2025-08-05T19:50:48.974395726Z,0.142455,-0.707487,9.507375,-0.002264,-0.000266,1.102548
2025-08-05T19:50:48.994271527Z,0.152032,-0.791284,9.785102,-0.003063,0.005326,1.130245
2025-08-05T19:50:49.014128005Z,0.032322,-0.579397,9.780313,-0.027031,-0.018109,1.122788
2025-08-05T19:50:49.034027765Z,0.432153,-0.380678,9.761160,0.064448,-0.020773,1.042893
2025-08-05T19:50:49.073738325Z,0.584185,-0.487220,9.497798,-0.093211,0.025833,1.038632
2025-08-05T19:50:49.093632095Z,0.635661,-0.500388,9.454702,-0.002131,-0.021572,1.014131
2025-08-05T19:50:49.113476594Z,0.818817,-0.472855,9.890448,0.024235,0.003862,0.885234
2025-08-05T19:50:49.133374999Z,0.889446,-0.507571,9.751583,0.073770,-0.018109,0.831971
2025-08-05T19:50:49.153253509Z,0.961272,-0.664391,9.598354,-0.019441,0.016911,0.801078
2025-08-05T19:50:49.173144675Z,0.945710,-0.610521,9.598354,-0.011851,-0.014647,0.806404
2025-08-05T19:50:49.232726713Z,1.638831,-0.108936,10.024523,0.027431,-0.016112,0.295078
2025-08-05T19:50:49.252641368Z,1.886631,-0.177171,9.737218,-0.039681,0.009454,0.213053
2025-08-05T19:50:49.272483002Z,2.603694,-0.231040,9.952697,0.023702,-0.016645,0.063916
2025-08-05T19:50:49.292531149Z,2.670732,-0.379481,9.612720,-0.004927,-0.019841,-0.063916
2025-08-05T19:50:49.312204813Z,2.734178,-0.353145,9.700109,-0.016911,-0.005992,-0.096406
2025-08-05T19:50:49.332125354Z,2.511518,-0.541090,9.604341,-0.041279,0.004661,-0.044208
2025-08-05T19:50:49.391672131Z,1.768118,-2.278083,10.040085,0.170975,0.002131,-0.054861
2025-08-05T19:50:49.411548661Z,2.487576,-2.064999,10.030508,-0.035553,-0.004128,-0.146474
2025-08-05T19:50:49.431446702Z,2.446874,-0.875081,9.665691,-0.017444,-0.010253,-0.412257
2025-08-05T19:50:49.451338285Z,2.683900,-0.596156,9.665691,-0.031292,-0.014647,-0.525175
2025-08-05T19:50:49.471186638Z,2.026692,-0.609324,10.091860,-0.019841,-0.010120,-0.609331
2025-08-05T19:50:49.491056085Z,1.782483,-0.537498,9.421483,0.066446,-0.016378,-0.791491
2025-08-05T19:50:49.550698019Z,1.587356,-0.944513,9.933842,-0.058723,-0.001065,-1.101483
2025-08-05T19:50:49.570569237Z,1.291672,-0.465672,9.603442,0.049402,0.003995,-1.138767
2025-08-05T19:50:49.590411548Z,1.264138,-0.608127,10.044873,0.002929,-0.032357,-1.235173
2025-08-05T19:50:49.610299745Z,1.034295,-0.507571,9.781511,-0.057258,0.012117,-1.351287
2025-08-05T19:50:49.630146536Z,1.122881,-0.192733,9.470264,0.022104,0.015979,-1.381114
2025-08-05T19:50:49.650017753Z,0.750582,-0.539892,9.680955,-0.032357,-0.006258,-1.400289
2025-08-05T19:50:49.689753835Z,-0.108936,-0.439336,10.030508,0.149403,-0.023303,-1.404550
2025-08-05T19:50:49.729517468Z,-0.544681,-0.460884,10.001778,0.028496,-0.007057,-1.419464
2025-08-05T19:50:49.749406759Z,-0.697910,-0.575805,9.973047,-0.112652,-0.009188,-1.404550
2025-08-05T19:50:49.769365790Z,-0.615310,-0.101754,9.752781,-0.011318,-0.002397,-1.382179
2025-08-05T19:50:49.789132111Z,-0.946907,-0.204704,9.838972,0.018376,-0.007989,-1.449291
2025-08-05T19:50:49.809012652Z,-0.837971,-0.602142,9.561244,0.047005,-0.004527,-1.388571
2025-08-05T19:50:49.848747379Z,-1.373075,-0.598550,9.408015,-0.008256,-0.005593,-1.370462
2025-08-05T19:50:49.868629326Z,-1.403002,-0.322020,9.273940,0.031692,-0.015047,-1.317198
2025-08-05T19:50:49.888465178Z,-1.526304,0.204704,10.035296,-0.026765,-0.006392,-1.160605
2025-08-05T19:50:49.908350875Z,-1.127669,-0.300472,9.575610,-0.004128,0.012783,-1.040230
2025-08-05T19:50:49.928210426Z,-0.650026,-1.007959,9.503783,-0.002397,0.034355,-1.128647
2025-08-05T19:50:49.948286646Z,-1.088165,-1.230620,9.661801,0.044475,-0.005326,-1.094558
2025-08-05T19:50:49.968160104Z,-0.426168,-0.418985,9.585187,0.052597,-0.033289,-1.061535
2025-08-05T19:50:49.988006738Z,-0.650026,-0.385466,10.155006,-0.012251,0.006392,-0.897485
2025-08-05T19:50:50.007899987Z,-1.079785,-0.345962,9.570822,0.032890,0.006125,-0.808002
2025-08-05T19:50:50.027557244Z,-1.987187,0.276530,9.982624,-0.076166,-0.012517,-0.617320
2025-08-05T19:50:50.047438201Z,-2.920926,0.499191,9.460688,0.009587,-0.006125,-0.617320
2025-08-05T19:50:50.067299783Z,-2.744952,0.450110,9.690532,-0.011585,-0.017177,-0.581101
2025-08-05T19:50:50.087153761Z,-2.444480,0.156820,9.647436,-0.028363,-0.007723,-0.425573
2025-08-05T19:50:50.107086074Z,-2.232593,-0.256180,9.695320,-0.030893,0.001065,-0.159257
2025-08-05T19:50:50.127006667Z,1.027112,-0.258574,9.661801,0.085088,-0.022104,-0.000533
2025-08-05T19:50:50.166661497Z,0.031125,0.090980,9.810242,-0.007324,-0.003462,-0.015446
2025-08-05T19:50:50.186738811Z,0.026336,-0.137667,9.767146,0.013049,-0.009987,-0.013316
2025-08-05T19:50:50.206417631Z,0.070629,-0.222661,9.671378,-0.006791,-0.008788,-0.014381
2025-08-05T19:50:50.226310619Z,0.070629,-0.100556,9.724051,-0.008522,-0.008123,-0.014381
2025-08-05T19:50:50.246181993Z,-0.343568,0.142455,9.738416,-0.057125,-0.009188,-0.038882
2025-08-05T19:50:50.266028992Z,-0.393846,-0.003591,9.431957,-0.076300,0.021438,0.013316
2025-08-05T19:50:50.305749083Z,-2.536657,-0.337582,9.617508,-0.026232,-0.018642,0.079895
2025-08-05T19:50:50.325654416Z,-2.540248,-0.191536,9.732430,-0.020240,-0.013848,0.232227
2025-08-05T19:50:50.345548342Z,-1.589750,0.094571,10.072407,0.010386,-0.015313,0.370712
2025-08-05T19:50:50.365434612Z,-1.146823,0.059855,9.516952,0.029961,-0.005992,0.366451
2025-08-05T19:50:50.385230986Z,-1.221043,0.015562,9.454702,0.019441,0.003862,0.296143
2025-08-05T19:50:50.405145537Z,-0.724246,0.530316,8.851364,0.050467,0.009055,0.248206
2025-08-05T19:50:50.425006182Z,0.312443,0.092177,9.358934,-0.079895,-0.020506,0.369646
2025-08-05T19:50:50.464738565Z,-0.659603,0.277727,9.765948,-0.010253,-0.017444,0.481499
2025-08-05T19:50:50.484612699Z,-0.585382,0.192733,9.387665,0.043676,-0.022770,0.420779
2025-08-05T19:50:50.504488865Z,-0.718261,0.000000,9.502586,-0.006791,-0.003595,0.433562
2025-08-05T19:50:50.524354458Z,-0.715866,0.112527,9.823410,-0.016378,-0.006392,0.452737
2025-08-05T19:50:50.544223696Z,-0.693121,0.124498,9.665392,-0.015313,-0.008256,0.525175
2025-08-05T19:50:50.564117883Z,-0.696713,0.001197,9.406818,0.031958,-0.003595,0.590156
2025-08-05T19:50:50.604070060Z,-0.084994,-0.517148,9.895236,-0.002796,0.001465,0.601874
2025-08-05T19:50:50.623699036Z,-0.332794,-0.233435,9.560047,0.027830,-0.019042,0.599743
2025-08-05T19:50:50.643602493Z,0.033519,-0.299275,9.799467,-0.100401,0.005326,0.691356
2025-08-05T19:50:50.663428450Z,0.073023,0.025139,9.612720,0.017577,-0.001997,0.725444
2025-08-05T19:50:50.683310241Z,0.264559,-0.201113,9.545682,0.043809,-0.005992,0.737162
2025-08-05T19:50:50.703199792Z,0.193930,-0.451307,9.737218,-0.022504,-0.015313,0.736097
2025-08-05T19:50:50.723045176Z,0.448913,-0.324414,9.689334,-0.006125,-0.017976,0.686030
2025-08-05T19:50:50.782688934Z,0.620098,-0.398635,9.502586,0.005459,-0.005992,0.680703
2025-08-05T19:50:50.802547443Z,0.803255,-0.402226,9.574412,-0.031958,-0.035420,0.673247
2025-08-05T19:50:50.822415953Z,0.756568,-0.561440,9.430760,0.054462,-0.023702,0.660463
2025-08-05T19:50:50.842306285Z,0.232238,-0.811634,9.416395,0.028096,0.044874,0.630636
2025-08-05T19:50:50.862181044Z,1.047463,-0.694318,9.660604,-0.017710,-0.006392,0.614657
2025-08-05T19:50:50.882030960Z,1.674744,-0.942118,9.689334,-0.037417,-0.018642,0.662594
2025-08-05T19:50:50.921786989Z,1.820790,-1.374272,9.804255,-0.054195,-0.032624,0.544350
2025-08-05T19:50:50.941691124Z,1.599327,-1.010353,9.809045,0.022104,-0.021838,0.407996
2025-08-05T19:50:50.961520518Z,1.728614,-0.889446,9.737218,0.041545,-0.016112,0.390952
2025-08-05T19:50:50.981401371Z,1.577779,-0.245406,9.660604,0.012650,-0.002796,0.479369
2025-08-05T19:50:51.001238110Z,1.538275,-0.421380,9.737218,-0.004128,-0.016911,0.308926
2025-08-05T19:50:51.021343236Z,0.711078,-0.359130,9.622296,0.016512,-0.004128,-0.019175
2025-08-05T19:50:51.041000910Z,0.166397,-0.104148,9.540894,-0.006258,0.010120,-0.010653
2025-08-05T19:50:51.080746158Z,-0.047884,-0.313640,9.679757,-0.009454,-0.007191,-0.013848
2025-08-05T19:50:51.100617115Z,-0.007183,-0.152032,9.785102,-0.011052,-0.008655,-0.013848
2025-08-05T19:50:51.120495208Z,0.050278,-0.135272,9.713276,-0.004128,-0.008522,-0.014914
2025-08-05T19:50:51.140367624Z,0.013168,-0.152032,9.785102,-0.000932,-0.008788,-0.013848
2025-08-05T19:50:51.160244570Z,0.035913,-0.199916,9.713276,-0.002530,-0.008256,-0.013848
2025-08-05T19:50:51.180086413Z,0.033519,-0.187945,9.727641,-0.005060,-0.007856,-0.013848
2025-08-05T19:50:51.259580815Z,0.032322,-0.180762,9.718064,-0.002796,-0.008522,-0.014914
2025-08-05T19:50:51.279461929Z,0.034716,-0.190339,9.742006,-0.002663,-0.007989,-0.013848
2025-08-05T19:50:51.299320490Z,0.040701,-0.154426,9.842564,-0.002530,-0.009188,-0.013848
2025-08-05T19:50:51.319190874Z,0.011971,-0.158017,9.775525,-0.001065,-0.006924,-0.013848
2025-08-05T19:50:51.339086676Z,0.015562,-0.154426,9.751583,-0.000399,-0.008922,-0.013848
2025-08-05T19:50:51.398673870Z,0.027533,-0.219069,9.545682,0.001198,-0.008922,-0.013848
