timestamp,accel_x,accel_y,accel_z,gyro_x,gyro_y,gyro_z
2025-08-05T19:49:42.664776581Z,-0.033519,-0.225055,9.696517,-0.002929,-0.008123,-0.013848
2025-08-05T19:49:42.684715059Z,-0.047884,-0.205901,9.706094,-0.001731,-0.008522,-0.013848
2025-08-05T19:49:42.704540932Z,-0.058658,-0.198719,9.720459,-0.001198,-0.008123,-0.013848
2025-08-05T19:49:42.724375972Z,-0.063446,-0.203507,9.706094,-0.001731,-0.008522,-0.014914
2025-08-05T19:49:42.744226272Z,-0.050278,-0.227449,9.710882,-0.001864,-0.008389,-0.014914
2025-08-05T19:49:42.764109020Z,-0.017957,-0.240617,9.706094,-0.002264,-0.007590,-0.012783
2025-08-05T19:49:42.823723932Z,-0.064643,-0.203507,9.715671,-0.002397,-0.008256,-0.014914
2025-08-05T19:49:42.843605847Z,-0.032322,-0.213084,9.715671,-0.002663,-0.008123,-0.013848
2025-08-05T19:49:42.863464793Z,-0.037110,-0.232238,9.710882,-0.002530,-0.007590,-0.013848
2025-08-05T19:49:42.883348792Z,-0.049081,-0.220267,9.706094,-0.002131,-0.008123,-0.013848
2025-08-05T19:49:42.903264822Z,-0.053870,-0.233435,9.710882,-0.003063,-0.009321,-0.013848
2025-08-05T19:49:42.923064288Z,-0.058658,-0.207098,9.706094,-0.002264,-0.007856,-0.013848
2025-08-05T19:49:42.982750347Z,-0.057461,-0.197522,9.701305,-0.001997,-0.008522,-0.014914
2025-08-05T19:49:43.002606845Z,-0.051475,-0.216675,9.720459,-0.002796,-0.007989,-0.013848
2025-08-05T19:49:43.022434801Z,-0.058658,-0.245406,9.710882,-0.002530,-0.008522,-0.014914
2025-08-05T19:49:43.042324321Z,-0.055067,-0.238223,9.706094,-0.001332,-0.007856,-0.013848
2025-08-05T19:49:43.062173735Z,-0.047884,-0.223858,9.715671,-0.001864,-0.007856,-0.013848
2025-08-05T19:49:43.082083724Z,-0.044293,-0.214281,9.720459,-0.002397,-0.007856,-0.013848
2025-08-05T19:49:43.141653843Z,-0.047884,-0.214281,9.706094,-0.002663,-0.008123,-0.013848
2025-08-05T19:49:43.161569769Z,-0.055067,-0.216675,9.715671,-0.002264,-0.007723,-0.013848
2025-08-05T19:49:43.181413663Z,-0.047884,-0.215478,9.715671,-0.001731,-0.008256,-0.013848
2025-08-05T19:49:43.201474747Z,-0.045490,-0.219069,9.706094,-0.004128,-0.007723,-0.013848
2025-08-05T19:49:43.221151972Z,-0.057461,-0.209493,9.715671,-0.002530,-0.008123,-0.013848
2025-08-05T19:49:43.300622757Z,-0.056264,-0.215478,9.706991,-0.001997,-0.008256,-0.015846
2025-08-05T19:49:43.320507172Z,-0.047884,-0.213084,9.711780,-0.002264,-0.008123,-0.014781
2025-08-05T19:49:43.340370441Z,-0.050278,-0.213084,9.706991,-0.002796,-0.009587,-0.015846
2025-08-05T19:49:43.360207044Z,-0.062249,-0.208296,9.716568,-0.002131,-0.008256,-0.014781
2025-08-05T19:49:43.380137605Z,-0.049081,-0.205901,9.711780,-0.001198,-0.007590,-0.014781
2025-08-05T19:49:43.439721214Z,-0.052672,-0.222661,9.697414,-0.002131,-0.007723,-0.014781
2025-08-05T19:49:43.459603025Z,-0.055067,-0.240617,9.692626,-0.002663,-0.008123,-0.014781
2025-08-05T19:49:43.479484316Z,-0.059855,-0.210690,9.702203,-0.002131,-0.007723,-0.014781
2025-08-05T19:49:43.499351126Z,-0.038307,-0.195127,9.706991,-0.002796,-0.008522,-0.015846
2025-08-05T19:49:43.519195854Z,-0.034716,-0.192733,9.716568,-0.002131,-0.008256,-0.014781
2025-08-05T19:49:43.539068550Z,-0.044293,-0.202310,9.716568,-0.002530,-0.008256,-0.015846
2025-08-05T19:49:43.598702056Z,-0.050278,-0.222661,9.706991,-0.001465,-0.007989,-0.014781
2025-08-05T19:49:43.618556262Z,-0.057461,-0.205901,9.706991,-0.002530,-0.007590,-0.013715
2025-08-05T19:49:43.638444792Z,-0.056264,-0.211887,9.692626,-0.002929,-0.009721,-0.013715
2025-08-05T19:49:43.658276758Z,-0.056264,-0.234632,9.726145,-0.003862,-0.008788,-0.013715
2025-08-05T19:49:43.678201226Z,-0.045490,-0.228646,9.716568,-0.002397,-0.005726,-0.015846
2025-08-05T19:49:43.698270227Z,-0.061052,-0.210690,9.706991,-0.000666,-0.007989,-0.014781
2025-08-05T19:49:43.737764939Z,-0.068235,-0.033519,9.807548,-0.029428,-0.002929,-0.009454
2025-08-05T19:49:43.757668261Z,-0.020351,-0.009577,9.740510,-0.006658,-0.006525,-0.012650
2025-08-05T19:49:43.777570229Z,-0.041899,-0.141258,9.745298,-0.011185,-0.007457,-0.012650
2025-08-05T19:49:43.797424279Z,-0.061052,-0.243011,9.730933,-0.010120,-0.006525,-0.011585
2025-08-05T19:49:43.817269319Z,-0.033519,-0.187945,9.726145,0.012650,-0.010519,-0.016911
2025-08-05T19:49:43.837156598Z,-0.031125,-0.166397,9.735722,0.011585,-0.010253,-0.015846
2025-08-05T19:49:43.857009399Z,-0.033519,-0.119710,9.750087,-0.002131,-0.006125,-0.014781
2025-08-05T19:49:43.896761718Z,0.020351,-0.164003,9.721356,0.001731,0.001465,-0.010519
2025-08-05T19:49:43.916617331Z,-0.046687,-0.210690,9.735722,0.015846,-0.004527,-0.014781
2025-08-05T19:49:43.936504194Z,-0.041899,-0.260968,9.730933,0.007590,0.000932,-0.006258
2025-08-05T19:49:43.956384495Z,0.065841,-0.271742,9.673472,-0.005459,-0.002397,0.018243
2025-08-05T19:49:43.976249847Z,0.069432,-0.184354,9.697414,-0.017577,-0.003462,0.088550
2025-08-05T19:49:43.996121918Z,-0.308852,-0.199916,9.716568,-0.021305,-0.003862,0.050201
2025-08-05T19:49:44.055850530Z,0.405817,-0.077812,9.726145,-0.025034,-0.010253,0.096007
2025-08-05T19:49:44.075696611Z,0.008380,-0.274136,9.673472,-0.018642,-0.003728,0.088550
2025-08-05T19:49:44.095480817Z,-0.081403,-0.354342,9.821913,-0.003462,-0.006924,0.175902
2025-08-05T19:49:44.115347940Z,0.118513,-0.757765,9.400534,0.046605,-0.021705,0.196142
2025-08-05T19:49:44.135206469Z,0.069432,-0.311246,9.659107,0.012117,-0.009854,0.145009
2025-08-05T19:49:44.155078176Z,0.497994,-0.020351,9.568128,0.028895,-0.023702,0.174836
2025-08-05T19:49:44.175010769Z,0.314838,0.075417,9.443629,-0.001864,-0.019841,0.127965
2025-08-05T19:49:44.214708400Z,-0.174777,-0.219069,9.735722,-0.013183,-0.008389,0.078963
2025-08-05T19:49:44.234549482Z,-0.039504,-0.179565,9.692626,-0.006791,-0.013449,0.087485
2025-08-05T19:49:44.254421866Z,0.102951,-0.164003,9.726145,0.003329,-0.016911,0.055527
2025-08-05T19:49:44.274369042Z,-0.199916,-0.116119,9.793182,-0.002530,-0.010253,0.087485
2025-08-05T19:49:44.294204498Z,0.239420,-0.126893,9.505878,-0.019841,-0.006658,0.097072
2025-08-05T19:49:44.314034746Z,0.276530,-0.084994,9.462783,0.003196,-0.011318,0.057657
2025-08-05T19:49:44.353788941Z,-0.588974,-0.518345,9.807548,-0.057657,0.015579,0.045939
2025-08-05T19:49:44.373725388Z,-0.067038,-0.458490,9.683049,0.003862,-0.002929,0.041678
2025-08-05T19:49:44.393532562Z,0.205901,-0.310049,9.558551,0.009587,-0.013582,-0.022237
2025-08-05T19:49:44.413414321Z,-0.208296,-0.168791,9.774029,-0.012650,-0.009987,0.006525
2025-08-05T19:49:44.433247694Z,-0.245406,-0.381875,9.630377,-0.007457,-0.003329,0.017177
2025-08-05T19:49:44.453105286Z,0.070629,-0.052672,9.903316,0.022504,-0.003995,0.021438
2025-08-05T19:49:44.473205694Z,0.196325,-0.278924,9.558551,0.013183,-0.016911,-0.003063
2025-08-05T19:49:44.512766709Z,-0.195127,-0.227449,9.601646,-0.004927,-0.012251,-0.000932
2025-08-05T19:49:44.532598363Z,-0.253785,-0.111330,9.472360,0.002397,-0.015846,0.013982
2025-08-05T19:49:44.552481841Z,-0.051475,-0.167594,9.826701,-0.032491,-0.004661,0.017177
2025-08-05T19:49:44.572383548Z,-0.441730,-0.464475,9.826701,-0.010120,-0.005193,-0.030759
2025-08-05T19:49:44.592264265Z,-0.199916,-0.204704,9.783606,-0.014115,-0.001198,-0.021172
2025-08-05T19:49:44.612106961Z,-0.318429,-0.477643,10.080487,-0.008922,-0.002530,0.011851
2025-08-05T19:49:44.691800249Z,-0.409408,-0.379481,9.927258,-0.009987,-0.005193,-0.017976
2025-08-05T19:49:44.711455807Z,-0.562637,-0.533907,9.769240,-0.049535,0.003329,-0.058456
2025-08-05T19:49:44.731317618Z,-0.008380,-0.032322,9.802759,-0.022237,-0.013582,0.052331
2025-08-05T19:49:44.751180105Z,-0.181959,-0.294487,10.037392,0.021971,-0.003329,-0.023303
2025-08-05T19:49:44.771075823Z,0.063446,-0.136469,9.151537,0.006125,-0.031825,-0.021172
2025-08-05T19:49:44.830680005Z,-0.435745,-0.191536,9.951200,-0.018109,0.002796,-0.022237
2025-08-05T19:49:44.850534420Z,0.001197,-0.282516,9.678261,0.009587,-0.006791,-0.023303
2025-08-05T19:49:44.870455763Z,0.017957,-0.167594,9.405322,0.040480,-0.023036,-0.044608
2025-08-05T19:49:44.890282469Z,0.093374,-0.076614,9.400534,-0.004794,-0.026632,-0.022237
2025-08-05T19:49:44.910185582Z,-0.416591,-0.372298,9.865008,-0.014647,-0.010653,-0.016911
2025-08-05T19:49:44.930040674Z,-0.198719,-0.329203,9.572916,0.009454,-0.020906,0.009721
2025-08-05T19:49:44.989647461Z,-0.089783,-0.259771,9.687838,0.033822,-0.021971,-0.022237
2025-08-05T19:49:45.009518751Z,-0.180762,-0.320823,9.663896,-0.037817,-0.005593,0.024634
2025-08-05T19:49:45.029405874Z,0.084994,-0.146046,9.635165,0.018775,-0.011185,-0.001997
2025-08-05T19:49:45.049269456Z,-0.311246,-0.471658,9.745298,0.018908,-0.012916,0.004394
2025-08-05T19:49:45.069217882Z,-0.289698,-0.341174,9.932047,-0.027031,0.004261,-0.014781
2025-08-05T19:49:45.089041255Z,0.186748,-0.025139,9.654319,0.020107,-0.017976,0.011851
2025-08-05T19:49:45.128759252Z,-0.398635,-0.343568,9.788394,-0.017710,-0.001598,-0.001997
2025-08-05T19:49:45.148612573Z,-0.215478,-0.264559,9.711780,-0.030094,0.000932,0.001198
2025-08-05T19:49:45.168480946Z,-0.028730,-0.221464,9.759664,0.007324,-0.005859,-0.039282
2025-08-05T19:49:45.188558905Z,-0.245406,-0.350751,9.750087,-0.029428,-0.002131,-0.025433
2025-08-05T19:49:45.208218109Z,-0.192733,-0.331597,9.544186,-0.024501,0.005060,-0.078696
2025-08-05T19:49:45.228128723Z,-0.282516,-0.331597,9.912893,-0.005992,-0.000932,-0.056326
2025-08-05T19:49:45.287901293Z,-0.244209,-0.447716,9.649530,-0.021705,-0.005326,-0.014781
2025-08-05T19:49:45.307618049Z,-0.040701,-0.208296,9.793182,-0.004527,-0.008389,-0.017976
2025-08-05T19:49:45.327444026Z,-0.070629,-0.225055,9.730933,0.002929,-0.008922,-0.015846
2025-08-05T19:49:45.347348598Z,-0.062249,-0.231040,9.754875,-0.001731,-0.010253,-0.014781
2025-08-05T19:49:45.367217232Z,-0.071826,-0.293290,9.683049,0.004261,-0.010386,-0.014781
2025-08-05T19:49:45.387056594Z,-0.083797,-0.284910,9.711780,0.012517,-0.011185,-0.013715
2025-08-05T19:49:45.446660569Z,-0.100556,-0.307655,9.706991,0.012384,-0.015047,-0.017976
2025-08-05T19:49:45.466589620Z,-0.107739,-0.243011,9.735722,0.004261,-0.017444,-0.022237
2025-08-05T19:49:45.486427576Z,0.088585,-0.202310,9.620800,0.030493,-0.021172,-0.041412
2025-08-05T19:49:45.506280064Z,-0.008380,-0.355539,9.644742,0.013715,-0.017976,-0.021172
2025-08-05T19:49:45.526174062Z,-0.050278,-0.259771,9.721356,0.020373,-0.015713,-0.022237
2025-08-05T19:49:45.546031081Z,-0.028730,-0.211887,9.716568,0.017044,-0.014914,-0.023303
2025-08-05T19:49:45.585759182Z,-0.116119,-0.295684,9.754875,0.019574,-0.011185,-0.012650
2025-08-05T19:49:45.605632399Z,-0.058658,-0.277727,9.649530,-0.001465,-0.007989,-0.015846
2025-08-05T19:49:45.625523898Z,-0.041899,-0.221464,9.730933,-0.002929,-0.008922,-0.014781
2025-08-05T19:49:45.645368052Z,-0.057461,-0.225055,9.706991,0.000133,-0.009055,-0.014781
2025-08-05T19:49:45.665287363Z,-0.061052,-0.229843,9.702203,-0.001731,-0.008655,-0.013715
2025-08-05T19:49:45.685126205Z,-0.049081,-0.231040,9.706991,-0.006658,-0.007590,-0.013715
2025-08-05T19:49:45.744763461Z,-0.055067,-0.215478,9.711780,-0.002796,-0.007856,-0.014781
2025-08-05T19:49:45.764589698Z,-0.062249,-0.225055,9.706991,-0.001465,-0.008123,-0.014781
2025-08-05T19:49:45.784471353Z,-0.052672,-0.238223,9.702203,-0.003063,-0.009321,-0.015846
2025-08-05T19:49:45.804371654Z,-0.051475,-0.227449,9.722853,-0.003196,-0.007723,-0.013848
2025-08-05T19:49:45.824218673Z,-0.046687,-0.215478,9.718064,-0.001731,-0.008123,-0.014914
2025-08-05T19:49:45.844089129Z,-0.056264,-0.229843,9.698911,-0.001731,-0.006258,-0.014914
2025-08-05T19:49:45.864057296Z,-0.063446,-0.258574,9.703699,-0.010120,-0.006125,-0.014914
2025-08-05T19:49:45.903727010Z,-0.025139,-0.252588,9.708488,-0.016778,-0.005992,-0.014914
2025-08-05T19:49:45.923567727Z,-0.022745,-0.227449,9.713276,-0.018775,-0.001731,-0.013848
2025-08-05T19:49:45.943439538Z,-0.067038,-0.251391,9.689334,-0.013982,-0.004261,-0.013848
2025-08-05T19:49:45.963306817Z,-0.051475,-0.272939,9.698911,-0.012384,-0.007989,-0.013848
2025-08-05T19:49:45.983201754Z,-0.063446,-0.254982,9.713276,-0.007989,-0.006525,-0.013848
2025-08-05T19:49:46.003080596Z,-0.061052,-0.246603,9.727641,-0.012916,-0.008256,-0.012783
2025-08-05T19:49:46.062773738Z,-0.049081,-0.260968,9.698911,0.016245,-0.012384,-0.015979
2025-08-05T19:49:46.082539297Z,-0.065841,-0.271742,9.703699,0.023702,-0.011585,-0.017044
2025-08-05T19:49:46.102410431Z,-0.132878,-0.427365,9.636662,0.004794,-0.006658,-0.066046
2025-08-05T19:49:46.122266512Z,-0.037110,-0.253785,9.689334,0.021438,-0.012117,-0.064981
2025-08-05T19:49:46.142137802Z,-0.063446,-0.234632,9.703699,0.027031,-0.011585,-0.059655
2025-08-05T19:49:46.162078468Z,-0.071826,-0.272939,9.731233,0.016778,-0.011318,-0.071373
2025-08-05T19:49:46.201784225Z,-0.076614,-0.233435,9.702502,0.010120,-0.005459,-0.076699
2025-08-05T19:49:46.221652078Z,-0.101754,-0.359130,9.702502,0.008655,-0.008788,-0.085221
2025-08-05T19:49:46.241490450Z,-0.196325,-0.488417,9.506178,0.032091,-0.011585,-0.116114
2025-08-05T19:49:46.261440648Z,-0.099359,-0.149638,9.827001,0.015579,-0.009721,-0.099070
2025-08-05T19:49:46.281266677Z,0.007183,-0.113725,9.688137,0.000399,-0.007057,-0.106526
2025-08-05T19:49:46.301141821Z,-0.050278,-0.241814,9.668983,0.002264,-0.009188,-0.102265
2025-08-05T19:49:46.321000923Z,-0.107739,-0.414197,9.654618,0.001864,-0.008123,-0.118244
2025-08-05T19:49:46.360785900Z,-0.112527,-0.347159,9.697714,-0.000000,-0.006392,-0.152333
2025-08-05T19:49:46.380589064Z,-0.022745,-0.119710,9.793482,0.021305,-0.011452,-0.111853
2025-08-05T19:49:46.400480667Z,-0.253785,-0.693121,9.592669,-0.045806,-0.003329,-0.110255
2025-08-05T19:49:46.420343623Z,0.053870,-0.111330,9.847352,0.011718,-0.008123,-0.111853
2025-08-05T19:49:46.440206736Z,0.019154,-0.007183,9.698911,0.013316,-0.013582,-0.057524
2025-08-05T19:49:46.460150110Z,0.197522,-0.026336,9.765948,-0.004128,-0.011052,-0.015979
2025-08-05T19:49:46.519724970Z,0.167594,0.125696,9.751583,0.020240,-0.005859,-0.047937
2025-08-05T19:49:46.539581416Z,-0.001197,-0.313640,9.593566,-0.015180,-0.002663,-0.061785
2025-08-05T19:49:46.559469112Z,0.032322,-0.150835,9.560047,0.006125,-0.007057,-0.067112
2025-08-05T19:49:46.579334725Z,-0.178368,-0.371101,9.761160,-0.033822,-0.007191,-0.004261
2025-08-05T19:49:46.599198775Z,0.071826,0.031125,9.718064,0.023968,-0.004527,-0.062851
2025-08-05T19:49:46.619130952Z,-0.080206,-0.233435,10.019734,-0.007057,-0.009587,-0.047937
2025-08-05T19:49:46.678669821Z,0.130484,0.229843,9.809045,0.031958,-0.009987,-0.038349
2025-08-05T19:49:46.698553350Z,-0.009577,-0.745794,9.622296,-0.052597,-0.003595,-0.050067
2025-08-05T19:49:46.718419745Z,-0.038307,-0.138864,9.809045,-0.014514,-0.006125,-0.049002
2025-08-05T19:49:46.738266920Z,-0.037110,0.050278,9.953295,0.007989,-0.010653,-0.024501
2025-08-05T19:49:46.758167689Z,0.053870,-0.051475,9.862315,0.017444,-0.008522,-0.044741
2025-08-05T19:49:46.778037521Z,0.009577,0.254982,9.871892,0.024235,-0.008522,-0.054328
2025-08-05T19:49:46.798117980Z,-0.144849,-0.452504,9.522339,-0.008123,-0.010519,-0.038349
2025-08-05T19:49:46.817770830Z,0.111330,-0.081403,9.776124,-0.005459,-0.009987,-0.039415
2025-08-05T19:49:46.837625974Z,0.081403,-0.196325,9.790489,-0.012251,-0.007191,-0.050067
2025-08-05T19:49:46.857510598Z,0.232238,0.319626,9.761759,0.023702,-0.003995,-0.060720
2025-08-05T19:49:46.877394492Z,-0.070629,-0.251391,9.536704,-0.016378,-0.006258,-0.030893
2025-08-05T19:49:46.897258074Z,-0.088585,-0.166397,9.718663,0.007856,-0.009587,-0.005326
2025-08-05T19:49:46.917153322Z,0.071826,-0.258574,9.862315,-0.000266,-0.008123,-0.044741
2025-08-05T19:49:46.976741723Z,-0.069432,0.033519,9.680356,-0.011318,-0.004927,-0.020240
2025-08-05T19:49:46.996596867Z,-0.098162,-0.264559,9.680356,0.004261,-0.008389,-0.036219
2025-08-05T19:49:47.016467428Z,-0.231040,-0.391452,9.493608,-0.021705,-0.013316,-0.005326
2025-08-05T19:49:47.036574033Z,0.014365,0.017957,9.776124,0.016911,-0.007324,-0.020240
2025-08-05T19:49:47.056330947Z,0.083797,-0.077812,9.776124,0.001065,-0.006258,-0.020240
2025-08-05T19:49:47.076083694Z,-0.028730,-0.252588,9.742605,0.002397,-0.005992,-0.029827
2025-08-05T19:49:47.135675585Z,-0.152032,-0.368707,9.572916,-0.007324,-0.015047,0.018243
2025-08-05T19:49:47.155751460Z,-0.021548,-0.355539,9.716568,-0.002264,-0.007191,-0.055261
2025-08-05T19:49:47.175432071Z,-0.169988,-0.069432,9.668684,-0.007057,-0.011452,-0.005193
2025-08-05T19:49:47.195339976Z,-0.124498,-0.424971,9.754875,-0.001997,-0.010120,-0.022237
2025-08-05T19:49:47.215366216Z,-0.010774,-0.031125,9.769240,-0.007856,-0.005193,-0.026498
2025-08-05T19:49:47.235069691Z,0.074220,0.084994,9.769240,0.021971,-0.012916,-0.016911
2025-08-05T19:49:47.274784146Z,-0.053870,-0.090980,9.678261,0.008655,-0.010120,0.004394
2025-08-05T19:49:47.294666426Z,-0.001197,0.058658,9.845855,0.013049,-0.009321,-0.032890
2025-08-05T19:49:47.314537455Z,-0.011971,-0.225055,9.735722,-0.014781,-0.008522,-0.029694
2025-08-05T19:49:47.334412756Z,-0.077812,-0.022745,9.716568,0.007191,-0.011452,-0.041412
2025-08-05T19:49:47.354350766Z,-0.081403,-0.292093,9.745298,-0.005992,-0.009587,-0.069109
2025-08-05T19:49:47.374207472Z,-0.021548,-0.130484,9.706991,0.006791,-0.011452,-0.057391
2025-08-05T19:49:47.394053189Z,-0.015562,-0.185551,9.668684,-0.002264,-0.006658,-0.064848
2025-08-05T19:49:47.433784831Z,-0.031125,-0.178368,9.711780,-0.007457,-0.005459,-0.015846
2025-08-05T19:49:47.453738987Z,-0.049081,-0.207098,9.702203,-0.007856,-0.006924,-0.015846
2025-08-05T19:49:47.473503557Z,-0.043096,-0.187945,9.716568,-0.009188,-0.009854,-0.014781
2025-08-05T19:49:47.493421306Z,-0.046687,-0.196325,9.706991,-0.004661,-0.011452,-0.014781
2025-08-05T19:49:47.513233012Z,-0.037110,-0.205901,9.702203,-0.007057,-0.009454,-0.014781
2025-08-05T19:49:47.533134823Z,-0.028730,-0.209493,9.702203,-0.002131,-0.004527,-0.012650
2025-08-05T19:49:47.592708953Z,-0.059855,-0.228646,9.702203,-0.005859,-0.010253,-0.014781
2025-08-05T19:49:47.612579410Z,-0.050278,-0.205901,9.702203,-0.000533,-0.011318,-0.016911
2025-08-05T19:49:47.632457054Z,-0.051475,-0.210690,9.697414,-0.000000,-0.011318,-0.016911
2025-08-05T19:49:47.652402512Z,-0.050278,-0.215478,9.706991,-0.001598,-0.009721,-0.017976
2025-08-05T19:49:47.672236509Z,-0.055067,-0.179565,9.716568,0.002397,-0.013582,-0.017976
2025-08-05T19:49:47.692085768Z,0.015562,-0.213084,9.673472,-0.046872,-0.008389,-0.016911
2025-08-05T19:49:47.751730420Z,-0.039504,-0.232238,9.697414,-0.007723,-0.007856,-0.014781
2025-08-05T19:49:47.771567386Z,-0.049081,-0.234632,9.687838,-0.009454,-0.009055,-0.014781
2025-08-05T19:49:47.791444197Z,-0.051475,-0.213084,9.711780,-0.004794,-0.007989,-0.014781
2025-08-05T19:49:47.811317883Z,-0.035913,-0.199916,9.706991,-0.003862,-0.007590,-0.014781
2025-08-05T19:49:47.831166569Z,-0.045490,-0.201113,9.692626,-0.002397,-0.007723,-0.014781
2025-08-05T19:49:47.851291039Z,-0.041899,-0.209493,9.706991,-0.002530,-0.007856,-0.014781
2025-08-05T19:49:47.910696938Z,-0.049081,-0.211887,9.711780,-0.002397,-0.007989,-0.014781
2025-08-05T19:49:47.930525154Z,-0.044293,-0.209493,9.706991,-0.002530,-0.007856,-0.014781
2025-08-05T19:49:47.950388528Z,-0.045490,-0.215478,9.706991,-0.001997,-0.007590,-0.014781
2025-08-05T19:49:47.970307266Z,-0.049081,-0.211887,9.706991,-0.002796,-0.008389,-0.015846
2025-08-05T19:49:47.990132201Z,-0.044293,-0.219069,9.697414,-0.002397,-0.007856,-0.014781
2025-08-05T19:49:48.010009898Z,-0.049081,-0.219069,9.697414,-0.002663,-0.008256,-0.014781
2025-08-05T19:49:48.049751696Z,-0.039504,-0.217872,9.702203,-0.003063,-0.008655,-0.014781
2025-08-05T19:49:48.069662414Z,-0.046687,-0.207098,9.706991,-0.004128,-0.009587,-0.015846
2025-08-05T19:49:48.089509485Z,-0.045490,-0.215478,9.706991,-0.002397,-0.009055,-0.014781
2025-08-05T19:49:48.109397025Z,-0.033519,-0.214281,9.702203,-0.002264,-0.006791,-0.014781
2025-08-05T19:49:48.129232169Z,-0.033519,-0.219069,9.711780,-0.001997,-0.007723,-0.014781
2025-08-05T19:49:48.149329816Z,-0.025139,-0.214281,9.706991,-0.002397,-0.008522,-0.015846
2025-08-05T19:49:48.169192408Z,-0.046687,-0.211887,9.703699,-0.003196,-0.007856,-0.013848
2025-08-05T19:49:48.208723892Z,-0.058658,-0.192733,9.727641,-0.001997,-0.009321,-0.013848
2025-08-05T19:49:48.228589713Z,-0.056264,-0.197522,9.718064,-0.000932,-0.009321,-0.013848
2025-08-05T19:49:48.248520639Z,-0.045490,-0.214281,9.703699,-0.007324,-0.009321,-0.013848
2025-08-05T19:49:48.268324897Z,-0.028730,-0.210690,9.708488,-0.003462,-0.007590,-0.012783
2025-08-05T19:49:48.288223844Z,-0.035913,-0.199916,9.703699,-0.007590,-0.006525,-0.013848
2025-08-05T19:49:48.308119353Z,-0.040701,-0.217872,9.708488,-0.009854,-0.006125,-0.013848
2025-08-05T19:49:48.328113353Z,-0.055067,-0.237026,9.708488,-0.005593,-0.006924,-0.013848
2025-08-05T19:49:48.367677232Z,-0.043096,-0.208296,9.708488,-0.002264,-0.007057,-0.013848
2025-08-05T19:49:48.387556856Z,-0.051475,-0.225055,9.708488,-0.008256,-0.007989,-0.012783
2025-08-05T19:49:48.407415958Z,-0.037110,-0.229843,9.698911,-0.008522,-0.007324,-0.013848
2025-08-05T19:49:48.427316988Z,-0.049081,-0.227449,9.698911,-0.006125,-0.007057,-0.013848
2025-08-05T19:49:48.447190518Z,-0.053870,-0.213084,9.703699,-0.005060,-0.007057,-0.013848
2025-08-05T19:49:48.467079204Z,-0.033519,-0.220267,9.698911,-0.006658,-0.006791,-0.012783
2025-08-05T19:49:48.526671459Z,-0.045490,-0.231040,9.713276,-0.014914,-0.005459,-0.008522
2025-08-05T19:49:48.546546135Z,-0.028730,-0.201113,9.718064,-0.017444,-0.007856,-0.006392
2025-08-05T19:49:48.566439665Z,-0.057461,-0.198719,9.742006,-0.023702,-0.007324,-0.003196
2025-08-05T19:49:48.586298871Z,-0.132878,-0.269348,9.718064,-0.034754,-0.005859,-0.012783
2025-08-05T19:49:48.606155578Z,0.011971,-0.174777,9.698911,-0.024767,-0.006125,-0.021305
2025-08-05T19:49:48.626009107Z,-0.089783,-0.270545,9.674969,-0.021305,-0.006791,-0.031958
2025-08-05T19:49:48.665748770Z,0.134075,-0.001197,9.469068,-0.098004,0.000000,-0.034088
2025-08-05T19:49:48.685649592Z,0.031125,-0.154426,9.737218,-0.003995,-0.007590,-0.071373
2025-08-05T19:49:48.705487392Z,-0.008380,-0.283713,9.612720,-0.041678,-0.010653,-0.004261
2025-08-05T19:49:48.725359255Z,0.081403,-0.232238,9.665392,-0.041545,-0.009854,-0.010653
2025-08-05T19:49:48.745262108Z,0.049081,-0.031125,9.430760,0.090281,-0.024235,-0.035154
2025-08-05T19:49:48.824724091Z,0.177171,-0.201113,9.531317,-0.002131,-0.013715,-0.023436
2025-08-05T19:49:48.844629496Z,0.181959,-0.295684,9.593566,0.008522,-0.014514,-0.063916
2025-08-05T19:49:48.864436618Z,-0.257377,-0.349553,9.852140,-0.018509,-0.009454,-0.012783
2025-08-05T19:49:48.884342961Z,0.192733,-0.071826,9.507375,0.003595,-0.016378,-0.046872
2025-08-05T19:49:48.904207167Z,-0.319626,-0.470461,10.000581,-0.049402,0.005060,-0.034088
2025-08-05T19:49:48.924090749Z,0.241814,0.184354,9.090784,0.002131,-0.017044,-0.007457
2025-08-05T19:49:48.964036978Z,0.171185,-0.124498,9.627085,-0.009055,-0.007723,-0.018109
2025-08-05T19:49:48.983891913Z,-0.331597,-0.259771,9.507375,-0.072704,-0.003063,-0.029827
2025-08-05T19:49:49.003787943Z,0.442927,0.035913,9.708488,0.010919,-0.011318,-0.052198
2025-08-05T19:49:49.023441418Z,-0.017957,-0.420182,8.889671,0.012783,-0.016512,-0.087352
2025-08-05T19:49:49.043336927Z,0.672771,0.239420,9.775525,0.055527,-0.011851,-0.047937
2025-08-05T19:49:49.063195873Z,0.114922,-0.324414,9.751583,-0.027297,-0.004527,-0.035154
2025-08-05T19:49:49.083039090Z,0.317232,-0.084994,9.962274,-0.015713,-0.004394,-0.024501
2025-08-05T19:49:49.122796774Z,0.391452,-0.073023,9.967062,0.078297,-0.002796,-0.050067
2025-08-05T19:49:49.142687908Z,-0.001197,-0.126893,9.253590,0.024634,-0.012384,-0.068177
2025-08-05T19:49:49.162191954Z,0.093374,0.090980,9.674969,0.072837,-0.012517,-0.063916
2025-08-05T19:49:49.182419238Z,-0.067038,-0.222661,9.703699,-0.041945,-0.001864,-0.034088
2025-08-05T19:49:49.202286622Z,0.047884,-0.478840,9.583989,-0.014914,-0.008655,-0.040480
2025-08-05T19:49:49.222144579Z,-0.131681,-0.177171,9.220071,0.050999,-0.020373,-0.070307
2025-08-05T19:49:49.242126287Z,-0.835576,-0.661997,10.201694,-0.093610,0.001731,-0.002131
2025-08-05T19:49:49.281789178Z,0.726640,0.316035,9.880871,0.057791,-0.006924,-0.062851
2025-08-05T19:49:49.301646197Z,-0.222661,-0.332794,9.176975,-0.015979,-0.018908,-0.061785
2025-08-05T19:49:49.321514518Z,-0.464475,-0.545878,9.459491,-0.037151,-0.005193,-0.054328
2025-08-05T19:49:49.341406850Z,-0.347159,-0.300472,9.622296,-0.042877,-0.007191,-0.033023
2025-08-05T19:49:49.361265171Z,-0.428562,-0.533907,9.775525,-0.053529,-0.000932,-0.030893
2025-08-05T19:49:49.381145107Z,0.169988,-0.076614,9.421184,0.012384,-0.011585,-0.027697
2025-08-05T19:49:49.440743665Z,0.062249,-0.256180,9.540894,0.002663,-0.017976,-0.026632
2025-08-05T19:49:49.460592038Z,-0.561440,-0.616507,9.861717,-0.038216,0.004794,-0.034088
2025-08-05T19:49:49.480453067Z,-0.059855,-0.332794,9.593566,-0.049668,-0.005992,-0.008522
2025-08-05T19:49:49.500326076Z,-0.125696,-0.367510,9.536105,-0.032624,-0.008522,-0.040480
2025-08-05T19:49:49.520196585Z,0.408211,-0.099359,9.799467,0.059788,-0.015846,-0.076699
2025-08-05T19:49:49.540434702Z,-0.342371,-0.300472,9.761160,-0.006525,-0.005193,-0.017044
2025-08-05T19:49:49.560008072Z,0.136469,-0.130484,9.598354,0.007989,-0.012384,-0.004261
2025-08-05T19:49:49.599704402Z,-0.186748,-0.444124,9.593566,-0.030493,-0.004128,-0.010653
2025-08-05T19:49:49.619548556Z,0.553061,0.088585,9.651027,0.069508,-0.021705,-0.035154
2025-08-05T19:49:49.639550993Z,-0.380678,-0.354342,9.674969,-0.034887,-0.007723,-0.022371
2025-08-05T19:49:49.659329626Z,0.105345,-0.221464,9.703699,-0.066313,-0.001731,-0.005326
2025-08-05T19:49:49.679176749Z,0.201113,-0.215478,9.622296,-0.027031,-0.009188,-0.021305
2025-08-05T19:49:49.699097779Z,-0.034716,-0.350751,10.278308,0.058589,-0.007057,-0.058589
2025-08-05T19:49:49.758678003Z,-0.386664,-0.445322,9.622296,0.028629,-0.002929,-0.070307
2025-08-05T19:49:49.778520334Z,0.063446,-0.209493,9.861717,-0.011585,0.001864,-0.045806
2025-08-05T19:49:49.798398499Z,-0.348356,-0.422577,9.545682,-0.016778,-0.009454,-0.035154
2025-08-05T19:49:49.818250258Z,-0.187945,-0.344765,9.655815,-0.020373,-0.003329,-0.026632
2025-08-05T19:49:49.838153736Z,-0.256180,-0.383072,9.698911,-0.035420,-0.006392,-0.026632
2025-08-05T19:49:49.897745054Z,-0.628478,-0.538695,9.866506,-0.024901,-0.002929,-0.028762
2025-08-05T19:49:49.917635406Z,0.028730,-0.250194,9.818622,0.016645,-0.004527,-0.041545
2025-08-05T19:49:49.937485446Z,-0.260968,-0.423774,9.708488,-0.030626,0.000666,-0.013848
2025-08-05T19:49:49.957415904Z,-0.276530,-0.428562,9.780313,0.002796,-0.003728,-0.038349
2025-08-05T19:49:49.977245943Z,-0.096965,-0.289698,9.789890,-0.020107,-0.006924,-0.021305
2025-08-05T19:49:49.997110358Z,-0.051475,-0.277727,9.660604,0.005193,-0.011052,-0.011718
2025-08-05T19:49:50.056726884Z,0.000000,-0.228646,9.421184,0.015047,-0.013183,-0.029827
2025-08-05T19:49:50.076611768Z,-0.057461,-0.316035,9.847352,0.011984,-0.004128,-0.037284
2025-08-05T19:49:50.096474412Z,-0.189142,-0.326809,9.703699,-0.027564,-0.002131,-0.021305
2025-08-05T19:49:50.116342254Z,-0.010774,-0.275333,9.627085,-0.006791,-0.007057,-0.026632
2025-08-05T19:49:50.136231544Z,-0.090980,-0.293290,9.785102,-0.005593,-0.005326,-0.039415
2025-08-05T19:49:50.156264691Z,-0.011971,-0.275333,9.718064,-0.001065,-0.007057,-0.039415
2025-08-05T19:49:50.215669540Z,-0.055067,-0.283713,9.698911,0.011185,-0.011585,-0.014914
2025-08-05T19:49:50.235579456Z,-0.062249,-0.281319,9.708488,0.008788,-0.012517,-0.013848
2025-08-05T19:49:50.255425100Z,-0.047884,-0.306458,9.689334,0.018376,-0.013049,-0.013848
2025-08-05T19:49:50.275325173Z,-0.053870,-0.266953,9.708488,0.025034,-0.011052,-0.012783
2025-08-05T19:49:50.295162588Z,-0.040701,-0.258574,9.718064,0.031026,-0.014514,-0.012783
2025-08-05T19:49:50.315073962Z,-0.064643,-0.301669,9.684546,0.037151,-0.012117,-0.014914
2025-08-05T19:49:50.374693032Z,-0.045490,-0.140061,9.698911,0.033156,-0.011185,-0.027697
2025-08-05T19:49:50.394518781Z,0.122104,-0.131681,9.694122,0.005992,-0.007191,-0.017044
2025-08-05T19:49:50.414396873Z,0.104148,-0.268151,9.646238,-0.004794,-0.013848,-0.010653
2025-08-05T19:49:50.434325383Z,-0.035913,-0.210690,9.708488,0.003196,-0.004661,-0.013848
2025-08-05T19:49:50.454166132Z,-0.084994,-0.227449,9.703699,-0.000932,-0.009721,-0.012783
2025-08-05T19:49:50.474230842Z,-0.034716,-0.227449,9.703699,-0.001065,-0.007989,-0.013848
2025-08-05T19:49:50.513916141Z,-0.029928,-0.229843,9.703699,-0.000533,-0.009454,-0.013848
2025-08-05T19:49:50.553494199Z,-0.040701,-0.228646,9.708488,-0.001332,-0.007856,-0.012783
2025-08-05T19:49:50.573375313Z,-0.045490,-0.235829,9.713276,-0.001198,-0.007856,-0.013848
2025-08-05T19:49:50.593266635Z,-0.043096,-0.246603,9.674969,-0.003862,-0.008389,-0.014914
2025-08-05T19:49:50.613100352Z,-0.046687,-0.239420,9.698911,-0.004661,-0.007590,-0.013848
2025-08-05T19:49:50.672695151Z,-0.032322,-0.259771,9.694122,-0.003995,-0.008256,-0.014914
2025-08-05T19:49:50.692585015Z,-0.053870,-0.228646,9.698911,-0.004794,-0.008123,-0.013848
2025-08-05T19:49:50.712450764Z,-0.040701,-0.219069,9.708488,-0.004661,-0.007856,-0.013848
2025-08-05T19:49:50.732354951Z,-0.034716,-0.213084,9.703699,-0.007989,-0.007989,-0.012783
2025-08-05T19:49:50.752204710Z,-0.035913,-0.208296,9.718064,-0.006658,-0.007989,-0.013848
2025-08-05T19:49:50.772073063Z,-0.008380,-0.244209,9.694122,-0.011452,-0.008256,-0.013848
2025-08-05T19:49:50.831695414Z,-0.089783,-0.210690,9.713276,-0.009854,-0.010919,-0.013848
2025-08-05T19:49:50.851609497Z,0.016759,-0.228646,9.679757,-0.009188,-0.011052,-0.015979
2025-08-05T19:49:50.871436495Z,-0.022745,-0.244209,9.708488,-0.005859,-0.011185,-0.017044
2025-08-05T19:49:50.891312609Z,-0.137667,-0.191536,9.708488,-0.005726,-0.009454,-0.019175
2025-08-05T19:49:50.911170441Z,-0.189142,-0.211887,9.713276,-0.013848,-0.007057,-0.023436
2025-08-05T19:49:50.931063326Z,-0.175974,-0.220267,9.737218,-0.013449,-0.008522,-0.023436
2025-08-05T19:49:50.970802896Z,-0.209493,-0.234632,9.713276,-0.001997,-0.006258,-0.020240
2025-08-05T19:49:50.990646770Z,-0.111330,-0.300472,9.679757,-0.004128,-0.007057,-0.029827
2025-08-05T19:49:51.010516165Z,0.026336,-0.254982,9.718064,-0.008389,-0.011585,-0.027697
2025-08-05T19:49:51.030408425Z,0.065841,-0.247800,9.583989,0.001997,-0.009454,-0.022371
2025-08-05T19:49:51.050286465Z,-0.202310,-0.286107,9.674969,0.008788,-0.000399,-0.049002
2025-08-05T19:49:51.070147422Z,-0.093374,-0.305261,9.674969,0.004927,-0.012517,-0.028762
2025-08-05T19:49:51.090000775Z,-0.112527,-0.234632,9.780313,-0.005060,-0.010386,-0.029827
2025-08-05T19:49:51.129796805Z,-0.353145,-0.111330,9.684546,0.005326,-0.004661,0.013848
2025-08-05T19:49:51.149623856Z,-0.252588,-0.247800,9.627085,-0.005726,-0.008655,0.021305
2025-08-05T19:49:51.169494084Z,-0.263362,-0.429759,9.588778,-0.001332,-0.021971,0.028762
2025-08-05T19:49:51.189379573Z,-0.031125,-0.202310,9.660604,0.027431,-0.006525,0.035154
2025-08-05T19:49:51.209168185Z,0.096965,-0.198719,9.636662,0.014381,-0.011452,0.034088
2025-08-05T19:49:51.229139612Z,-0.076614,-0.325611,9.871294,-0.009721,-0.002397,0.017044
2025-08-05T19:49:51.288727484Z,-0.047884,-0.172383,9.689334,-0.001198,-0.001198,0.040480
2025-08-05T19:49:51.308580003Z,0.019154,-0.150835,9.722853,-0.005992,-0.010519,0.050067
2025-08-05T19:49:51.328455961Z,-0.130484,-0.339977,9.631873,-0.019175,-0.011585,0.053263
2025-08-05T19:49:51.348540358Z,-0.245406,-0.189142,9.837775,0.001864,-0.002131,0.055394
2025-08-05T19:49:51.368193969Z,-0.251391,-0.241814,9.684546,-0.006392,-0.002796,0.071373
2025-08-05T19:49:51.388052166Z,-0.067038,-0.338780,9.703699,-0.024235,-0.001997,0.079895
2025-08-05T19:49:51.447674934Z,-0.155623,-0.113725,9.708488,-0.002264,-0.002663,0.047937
2025-08-05T19:49:51.467542089Z,-0.203507,-0.274136,9.679757,-0.018376,-0.009188,0.062851
2025-08-05T19:49:51.487416119Z,-0.177171,-0.186748,9.713276,-0.008655,-0.010120,0.059655
2025-08-05T19:49:51.507336764Z,0.084994,-0.210690,9.732430,-0.011851,-0.005593,0.070307
2025-08-05T19:49:51.527211784Z,-0.004788,-0.211887,9.603143,-0.000799,-0.007723,0.064981
2025-08-05T19:49:51.547057273Z,0.070629,-0.287304,9.742006,-0.001997,-0.012783,0.047937
2025-08-05T19:49:51.586777260Z,0.353145,-0.222661,9.775525,-0.003196,-0.001465,0.052198
2025-08-05T19:49:51.606670092Z,0.162806,-0.210690,9.588778,0.003595,-0.009587,0.062851
2025-08-05T19:49:51.626576935Z,0.092177,-0.410606,9.746795,-0.000932,-0.009188,0.004261
2025-08-05T19:49:51.646410028Z,0.167594,-0.229843,9.655815,-0.001997,-0.012384,-0.008522
2025-08-05T19:49:51.666280568Z,-0.101754,-0.204704,9.694122,-0.007457,-0.006125,0.030893
2025-08-05T19:49:51.686138400Z,-0.052672,-0.288501,9.670180,0.004128,-0.014514,0.020240
2025-08-05T19:49:51.745733095Z,-0.180762,-0.252588,9.646238,0.013316,-0.008788,0.024501
2025-08-05T19:49:51.765632282Z,-0.102951,-0.256180,9.631873,-0.010120,-0.011452,0.006392
2025-08-05T19:49:51.785465374Z,-0.064643,-0.329203,9.651626,-0.002397,-0.013582,-0.001598
2025-08-05T19:49:51.805343832Z,-0.246603,-0.166397,9.723452,0.004794,-0.005459,0.004794
2025-08-05T19:49:51.825289060Z,-0.189142,-0.232238,9.661202,-0.001997,-0.008522,0.015446
2025-08-05T19:49:51.845319707Z,-0.336385,-0.259771,9.685144,-0.012517,-0.015180,0.033556
2025-08-05T19:49:51.865152591Z,-0.130484,-0.177171,9.723452,-0.010253,-0.013316,0.042078
2025-08-05T19:49:51.904715806Z,0.403423,-0.107739,9.867104,0.018775,-0.005726,0.039947
2025-08-05T19:49:51.924625878Z,0.439336,-0.221464,9.780912,-0.005193,-0.014914,0.045274
2025-08-05T19:49:51.944460481Z,0.155623,-0.262165,9.776124,-0.023169,-0.009987,0.031425
2025-08-05T19:49:51.964416335Z,0.045490,-0.252588,9.675568,-0.009454,-0.009188,0.010120
2025-08-05T19:49:51.984189843Z,0.013168,-0.263362,9.642049,-0.009454,-0.011851,0.002663
2025-08-05T19:49:52.004065957Z,-0.017957,-0.276530,9.665991,-0.002264,-0.006924,-0.010120
2025-08-05T19:49:52.063687995Z,-0.130484,-0.250194,9.699510,0.002663,-0.009721,-0.009055
2025-08-05T19:49:52.083559734Z,-0.363919,-0.260968,9.733028,0.003196,-0.009321,-0.013316
2025-08-05T19:49:52.103412878Z,-0.274136,-0.263362,9.718663,0.019707,-0.009321,-0.007989
2025-08-05T19:49:52.123284669Z,-0.082600,-0.197522,9.594165,0.006392,-0.009321,0.006924
2025-08-05T19:49:52.143139949Z,-0.214281,-0.222661,9.709086,-0.001598,-0.005859,0.011185
2025-08-05T19:49:52.163038771Z,-0.096965,-0.216675,9.680356,0.003595,-0.003329,0.017577
2025-08-05T19:49:52.202749540Z,-0.172383,-0.217872,9.713875,0.004794,-0.006258,0.005859
2025-08-05T19:49:52.222695081Z,0.134075,-0.223858,9.728240,0.012650,-0.010519,0.011185
2025-08-05T19:49:52.242537653Z,0.235829,-0.253785,9.780912,0.000133,-0.007590,0.021838
2025-08-05T19:49:52.262398141Z,0.508768,-0.347159,9.694721,-0.014781,-0.010786,-0.011185
2025-08-05T19:49:52.282280661Z,0.029928,-0.210690,9.670779,-0.005726,-0.012517,-0.027164
2025-08-05T19:49:52.302137191Z,0.004788,-0.191536,9.661202,-0.011318,-0.008123,-0.020773
2025-08-05T19:49:52.322063305Z,-0.040701,-0.199916,9.733028,-0.007324,-0.004661,-0.016512
2025-08-05T19:49:52.361737302Z,-0.122104,-0.169988,9.723452,-0.000533,-0.012251,-0.022903
2025-08-05T19:49:52.381617635Z,-0.159214,-0.203507,9.733028,-0.002796,-0.008256,-0.014381
2025-08-05T19:49:52.401475311Z,0.059855,-0.251391,9.675568,0.004927,-0.008522,-0.007989
2025-08-05T19:49:52.421471165Z,0.059855,-0.328006,9.718663,-0.007457,-0.009188,-0.000533
2025-08-05T19:49:52.441222173Z,-0.063446,-0.300472,9.771336,-0.013183,-0.009055,-0.011185
2025-08-05T19:49:52.461087453Z,-0.150835,-0.160412,9.723452,0.001598,-0.009454,-0.006924
2025-08-05T19:49:52.520765222Z,0.126893,-0.239420,9.780912,-0.006658,-0.009055,-0.006924
2025-08-05T19:49:52.540662221Z,0.038307,-0.217872,9.790489,-0.003462,-0.011452,-0.015446
2025-08-05T19:49:52.560681618Z,-0.113725,-0.264559,9.675568,0.002663,-0.009188,-0.023968
2025-08-05T19:49:52.580307155Z,0.034716,-0.205901,9.699510,0.003728,-0.008256,-0.014381
2025-08-05T19:49:52.600206915Z,0.065841,-0.310049,9.723452,0.012384,-0.011052,-0.025034
2025-08-05T19:49:52.620125946Z,0.191536,-0.284910,9.680356,0.008522,-0.011185,-0.021838
2025-08-05T19:49:52.679697880Z,-0.046687,-0.243011,9.689933,0.002530,-0.007856,-0.014381
2025-08-05T19:49:52.699776652Z,-0.047884,-0.203507,9.699510,-0.000533,-0.013582,-0.014381
2025-08-05T19:49:52.719635213Z,-0.061052,-0.240617,9.694721,-0.000266,-0.012384,-0.015446
2025-08-05T19:49:52.739499973Z,-0.134075,-0.270545,9.694721,0.008522,-0.009987,-0.019707
2025-08-05T19:49:52.759399837Z,-0.169988,-0.197522,9.699510,0.002131,-0.007989,-0.037817
2025-08-05T19:49:52.779022666Z,-0.126893,-0.240617,9.718663,0.005326,-0.007057,-0.034621
2025-08-05T19:49:52.818812237Z,-0.028730,-0.185551,9.718663,-0.001332,-0.007324,-0.027164
2025-08-05T19:49:52.838663038Z,0.190339,-0.222661,9.685144,-0.004661,-0.009987,-0.021838
2025-08-05T19:49:52.858510401Z,0.016759,-0.215478,9.709086,-0.008788,-0.008389,-0.017577
2025-08-05T19:49:52.878391411Z,-0.041899,-0.245406,9.689933,-0.012650,-0.006924,-0.013316
2025-08-05T19:49:52.898240233Z,-0.044293,-0.217872,9.694721,-0.005859,-0.005593,-0.012251
2025-08-05T19:49:52.918183639Z,-0.050278,-0.247800,9.699510,-0.003995,-0.006924,-0.014381
2025-08-05T19:49:52.938013970Z,-0.069432,-0.219069,9.694721,-0.003063,-0.008123,-0.014381
2025-08-05T19:49:52.977724895Z,-0.041899,-0.234632,9.704298,-0.004927,-0.008389,-0.012251
2025-08-05T19:49:52.997620488Z,-0.055067,-0.219069,9.699510,-0.004394,-0.004927,-0.009055
2025-08-05T19:49:53.017518841Z,-0.057461,-0.247800,9.704298,0.003462,-0.006525,-0.012251
2025-08-05T19:49:53.037347923Z,-0.064643,-0.238223,9.709086,0.009987,-0.006525,-0.015446
2025-08-05T19:49:53.057456800Z,-0.037110,-0.195127,9.709086,0.009721,-0.009454,-0.015446
2025-08-05T19:49:53.077103588Z,-0.064643,-0.216675,9.718663,0.007989,-0.007191,-0.015446
2025-08-05T19:49:53.136754273Z,-0.057461,-0.221464,9.689933,0.000533,-0.010386,-0.014381
2025-08-05T19:49:53.156571323Z,-0.056264,-0.271742,9.694721,-0.002929,-0.009721,-0.015446
2025-08-05T19:49:53.176455927Z,-0.077812,-0.216675,9.704298,-0.003329,-0.009055,-0.014381
2025-08-05T19:49:53.196315477Z,-0.045490,-0.259771,9.694721,0.000932,-0.009587,-0.015446
2025-08-05T19:49:53.216226383Z,-0.027533,-0.231040,9.703699,-0.005992,-0.006525,-0.012783
2025-08-05T19:49:53.236080569Z,-0.068235,-0.228646,9.694122,-0.009321,-0.008655,-0.012783
2025-08-05T19:49:53.276068008Z,-0.102951,-0.166397,9.737218,-0.005726,-0.007723,-0.012783
2025-08-05T19:49:53.295660785Z,-0.023942,-0.196325,9.713276,-0.004794,-0.010386,-0.014914
2025-08-05T19:49:53.315590805Z,-0.058658,-0.211887,9.698911,-0.006525,-0.009454,-0.014914
2025-08-05T19:49:53.335450564Z,-0.094571,-0.164003,9.732430,-0.009721,-0.010253,-0.011718
2025-08-05T19:49:53.355277927Z,-0.053870,-0.209493,9.722853,-0.005992,-0.010120,-0.013848
2025-08-05T19:49:53.375179614Z,-0.052672,-0.228646,9.708488,-0.006658,-0.009321,-0.013848
2025-08-05T19:49:53.395053072Z,-0.037110,-0.254982,9.698911,-0.000000,-0.007324,-0.015979
2025-08-05T19:49:53.434803163Z,-0.051475,-0.219069,9.703699,0.003728,-0.009188,-0.018109
2025-08-05T19:49:53.454657922Z,-0.287304,-0.203507,9.703699,-0.001065,-0.008256,-0.038349
2025-08-05T19:49:53.474530807Z,-0.002394,-0.234632,9.703699,-0.000533,-0.009987,-0.033023
2025-08-05T19:49:53.494404420Z,-0.131681,-0.187945,9.737218,-0.000000,-0.009854,-0.037284
2025-08-05T19:49:53.514287253Z,-0.192733,-0.195127,9.689334,-0.002397,-0.006258,-0.040480
2025-08-05T19:49:53.534144304Z,-0.328006,-0.150835,9.684546,-0.007457,-0.003595,-0.025566
2025-08-05T19:49:53.554010678Z,-0.138864,-0.192733,9.684546,-0.009454,-0.005459,-0.007457
2025-08-05T19:49:53.593724207Z,-0.399832,-0.186748,9.698911,-0.000133,-0.004661,-0.006392
2025-08-05T19:49:53.613649279Z,-0.229843,-0.201113,9.679757,0.000399,-0.006258,0.020240
2025-08-05T19:49:53.633470809Z,-0.046687,-0.247800,9.665392,-0.007057,-0.013449,0.041545
2025-08-05T19:49:53.653522653Z,-0.317232,-0.225055,9.698911,-0.006658,-0.001864,0.020240
2025-08-05T19:49:53.673249234Z,-0.348356,-0.102951,9.775525,0.002264,-0.005859,0.044741
2025-08-05T19:49:53.693122796Z,0.083797,-0.164003,9.761160,0.006525,-0.008522,0.021305
2025-08-05T19:49:53.752732959Z,-0.161609,-0.180762,9.564836,0.005992,-0.011452,0.019175
2025-08-05T19:49:53.772853867Z,-0.023942,-0.262165,9.698911,0.002397,-0.005726,0.018109
2025-08-05T19:49:53.792451696Z,-0.203507,-0.169988,9.861717,0.009454,-0.003063,0.039415
2025-08-05T19:49:53.812346508Z,-0.276530,-0.222661,9.813833,0.003595,-0.001065,0.055394
2025-08-05T19:49:53.832205903Z,-0.101754,-0.141258,9.627085,0.008123,-0.008655,0.035154
2025-08-05T19:49:53.852074047Z,0.007183,-0.263362,9.660604,0.001731,-0.007723,0.045806
2025-08-05T19:49:53.911674523Z,-0.159214,-0.277727,9.674969,-0.007457,-0.008123,-0.005326
2025-08-05T19:49:53.931574127Z,-0.300472,-0.221464,9.655815,-0.003995,-0.003329,0.011718
2025-08-05T19:49:53.951430240Z,-0.292093,-0.174777,9.694122,-0.007856,-0.008522,0.021305
2025-08-05T19:49:53.971296979Z,-0.059855,-0.102951,9.770737,-0.004794,-0.015713,0.033023
2025-08-05T19:49:53.991157936Z,-0.062249,-0.079009,9.665392,-0.001465,-0.008123,0.055394
2025-08-05T19:49:54.011069519Z,0.021548,-0.111330,9.603143,-0.019441,-0.014647,0.059655
2025-08-05T19:49:54.050803933Z,0.047884,-0.108936,9.727641,-0.003329,-0.013582,0.037284
2025-08-05T19:49:54.070609525Z,-0.299275,-0.156820,9.732430,-0.006791,-0.011718,0.057524
2025-08-05T19:49:54.090525118Z,-0.013168,-0.098162,9.660604,0.000799,-0.009188,0.061785
2025-08-05T19:49:54.110445139Z,0.052672,-0.305261,9.555259,-0.007989,-0.008922,0.041545
2025-08-05T19:49:54.130267866Z,0.080206,-0.180762,9.718064,-0.002796,-0.017843,0.033023
2025-08-05T19:49:54.150146532Z,-0.328006,-0.137667,9.737218,-0.003728,0.001198,0.036219
2025-08-05T19:49:54.170016656Z,-0.314838,-0.221464,9.689334,0.001465,0.000266,0.050067
2025-08-05T19:49:54.229656143Z,0.207098,-0.337582,9.799467,-0.023569,-0.012650,0.044741
2025-08-05T19:49:54.249493245Z,0.272939,-0.079009,9.818622,0.001332,-0.010786,0.040480
2025-08-05T19:49:54.269354671Z,0.087388,-0.215478,9.742006,-0.002397,0.000799,0.018109
2025-08-05T19:49:54.289223129Z,0.205901,-0.134075,9.746795,0.018243,-0.006125,0.022371
2025-08-05T19:49:54.309127055Z,-0.076614,-0.348356,9.607931,0.007856,-0.001465,-0.008522
2025-08-05T19:49:54.349049024Z,0.185551,-0.216675,9.732430,0.000666,-0.009055,-0.003196
2025-08-05T19:49:54.368693260Z,-0.076614,-0.147243,9.794679,0.001997,-0.004128,-0.009587
2025-08-05T19:49:54.388561561Z,0.002394,-0.269348,9.670180,-0.000399,-0.014115,-0.015979
2025-08-05T19:49:54.408658562Z,0.003591,-0.213084,9.698911,0.004527,-0.010519,-0.015979
2025-08-05T19:49:54.428331236Z,-0.107739,-0.275333,9.689334,-0.006924,-0.009055,-0.020240
2025-08-05T19:49:54.448207245Z,-0.023942,-0.366313,9.737218,-0.006525,-0.010653,-0.014914
2025-08-05T19:49:54.468036431Z,-0.149638,-0.168791,9.756371,0.008256,-0.009854,-0.038349
2025-08-05T19:49:54.527682533Z,0.020351,-0.244209,9.698911,0.005593,-0.012916,-0.009587
2025-08-05T19:49:54.547542136Z,0.096965,-0.125696,9.756371,-0.004661,-0.007324,-0.034088
2025-08-05T19:49:54.567465229Z,0.019154,-0.152032,9.679757,-0.010519,-0.017177,-0.020240
2025-08-05T19:49:54.587281082Z,-0.041899,-0.208296,9.622296,-0.004527,-0.007191,-0.055394
2025-08-05T19:49:54.607212144Z,-0.251391,-0.229843,9.622296,0.004927,-0.009587,-0.076699
2025-08-05T19:49:54.627043778Z,-0.162806,-0.233435,9.794679,0.004394,-0.011585,-0.033023
2025-08-05T19:49:54.666780692Z,0.064643,-0.119710,9.718064,0.010519,-0.008922,-0.058589
2025-08-05T19:49:54.686637326Z,-0.262165,-0.172383,9.617508,0.010786,-0.005859,-0.042611
2025-08-05T19:49:54.706541253Z,0.027533,-0.116119,9.665392,-0.003063,-0.015979,-0.024501
2025-08-05T19:49:54.726376324Z,-0.294487,-0.248997,9.689334,-0.007856,-0.002397,0.009587
2025-08-05T19:49:54.746284417Z,0.116119,-0.093374,9.818622,-0.003196,-0.010519,-0.021305
2025-08-05T19:49:54.766167458Z,0.220267,-0.146046,9.751583,-0.006392,-0.024901,-0.033023
2025-08-05T19:49:54.806060989Z,-0.131681,-0.407014,9.789890,-0.014115,-0.002929,-0.165116
2025-08-05T19:49:54.825959759Z,-0.158017,-0.184354,9.718064,-0.007723,-0.001198,-0.169377
2025-08-05T19:49:54.845814310Z,-0.130484,-0.093374,9.832987,-0.026898,-0.006525,-0.187486
2025-08-05T19:49:54.865483651Z,0.138864,-0.055067,9.674969,-0.031292,-0.009055,-0.200270
2025-08-05T19:49:54.885347733Z,-0.174777,-0.345962,9.742006,-0.028895,-0.005459,-0.276969
2025-08-05T19:49:54.905270722Z,-0.237026,-0.185551,9.679757,-0.010386,-0.010386,-0.278034
2025-08-05T19:49:54.925102252Z,-0.386664,-0.099359,9.598354,-0.002796,0.007191,-0.292947
2025-08-05T19:49:54.984812052Z,-0.095768,-0.138864,9.665392,0.020373,-0.001465,-0.265251
2025-08-05T19:49:55.004730041Z,-0.216675,-0.222661,9.689334,0.007191,-0.000133,-0.302535
2025-08-05T19:49:55.024466726Z,-0.028730,-0.190339,9.847352,-0.002663,0.001332,-0.292947
2025-08-05T19:49:55.044308933Z,-0.149638,-0.025139,9.742006,-0.005326,0.003462,-0.292947
2025-08-05T19:49:55.064174890Z,0.057461,-0.083797,9.871294,0.002663,-0.000399,-0.289752
2025-08-05T19:49:55.084058764Z,-0.196325,-0.137667,9.837775,-0.008389,-0.006525,-0.271642
2025-08-05T19:49:55.143652157Z,-0.183156,-0.239420,9.895236,0.005859,-0.009987,-0.234358
2025-08-05T19:49:55.163563479Z,-0.096965,-0.330400,9.804255,0.014914,-0.003595,-0.241815
2025-08-05T19:49:55.183429644Z,-0.071826,-0.238223,9.674969,0.019841,-0.008389,-0.208792
2025-08-05T19:49:55.203294456Z,0.095768,-0.003591,9.631873,0.021572,-0.009987,-0.181095
2025-08-05T19:49:55.223386301Z,-0.137667,-0.088585,9.722853,0.011185,0.007590,-0.168312
2025-08-05T19:49:55.243033350Z,0.094571,-0.075417,9.703699,-0.000399,-0.001997,-0.145941
2025-08-05T19:49:55.282784587Z,0.223858,-0.207098,9.761160,-0.013316,-0.002796,-0.137419
2025-08-05T19:49:55.322543637Z,0.506374,-0.493206,9.574412,-0.038083,-0.011984,-0.156594
2025-08-05T19:49:55.342382251Z,0.351948,0.062249,9.761160,-0.028096,-0.014647,-0.224771
2025-08-05T19:49:55.362236020Z,-0.033519,-0.424971,9.670180,-0.014115,-0.007457,-0.201335
2025-08-05T19:49:55.382135936Z,-0.017957,-0.495600,9.794679,-0.009321,-0.007989,-0.211987
2025-08-05T19:49:55.402222573Z,-0.263362,-0.167594,9.655815,0.011185,-0.007057,-0.241815
2025-08-05T19:49:55.441739589Z,-0.126893,-0.184354,9.607931,-0.003063,0.001731,-0.211987
2025-08-05T19:49:55.461595390Z,-0.219069,-0.211887,9.794679,0.005859,-0.003728,-0.201335
2025-08-05T19:49:55.481469056Z,-0.308852,-0.251391,9.789890,0.014514,-0.011718,-0.198139
2025-08-05T19:49:55.501351888Z,0.021548,-0.195127,9.679757,0.004394,-0.004261,-0.156594
2025-08-05T19:49:55.521224147Z,0.056264,-0.258574,9.679757,-0.016645,-0.006258,-0.164051
2025-08-05T19:49:55.541082865Z,0.037110,-0.260968,9.555259,-0.006658,-0.002264,-0.156594
2025-08-05T19:49:55.600799332Z,0.010774,-0.166397,9.804255,0.019441,-0.005459,-0.143811
2025-08-05T19:49:55.620584403Z,0.608127,-0.560243,9.583989,-0.015846,-0.009587,-0.100135
2025-08-05T19:49:55.640454735Z,0.131681,-0.001197,9.598354,-0.015047,-0.009987,-0.175768
2025-08-05T19:49:55.660320640Z,-0.065841,-0.342371,9.722853,0.001198,-0.009721,-0.119310
2025-08-05T19:49:55.680184306Z,0.253785,-0.365116,9.823410,-0.001598,-0.005193,-0.113983
2025-08-05T19:49:55.700080263Z,0.363919,-0.356736,9.665392,-0.003862,-0.008788,-0.134223
2025-08-05T19:49:55.759698135Z,-0.123301,-0.245406,9.689334,0.002796,-0.015180,-0.155528
2025-08-05T19:49:55.779524769Z,-0.417788,-0.075417,9.713276,-0.000932,-0.012251,-0.188552
2025-08-05T19:49:55.799452810Z,-0.235829,-0.073023,9.694122,0.009721,-0.006658,-0.170442
2025-08-05T19:49:55.819280590Z,-0.453701,-0.088585,9.765948,0.003063,0.000000,-0.159790
2025-08-05T19:49:55.839139933Z,-0.282516,-0.084994,9.583989,-0.006791,-0.002264,-0.147006
2025-08-05T19:49:55.859021880Z,-0.195127,-0.093374,9.880871,-0.000666,-0.004128,-0.139550
2025-08-05T19:49:55.918663137Z,0.180762,-0.105345,9.809045,-0.007191,-0.011185,-0.089482
2025-08-05T19:49:55.938518365Z,0.079009,-0.501585,9.698911,-0.004261,0.001065,-0.084156
2025-08-05T19:49:55.958385937Z,-0.005986,-0.314838,9.737218,0.008256,-0.003196,-0.083091
2025-08-05T19:49:55.978281530Z,-0.034716,-0.205901,9.636662,0.002530,-0.004661,-0.096939
2025-08-05T19:49:55.998163998Z,-0.027533,-0.132878,9.804255,0.004794,-0.001864,-0.098004
2025-08-05T19:49:56.077599858Z,-0.136469,-0.090980,9.785102,-0.018509,-0.008922,-0.047937
2025-08-05T19:49:56.097474669Z,0.079009,-0.165200,9.684546,-0.028496,-0.001198,-0.057524
2025-08-05T19:49:56.117538598Z,-0.253785,-0.065841,9.665392,0.007324,-0.005459,-0.036219
2025-08-05T19:49:56.137423878Z,-0.112527,-0.265756,9.742006,-0.004128,-0.011318,-0.051133
2025-08-05T19:49:56.157290929Z,0.215478,-0.287304,9.555259,-0.003595,0.001598,-0.049002
2025-08-05T19:49:56.177158865Z,-0.068235,-0.257377,9.603143,-0.002796,-0.008256,-0.072438
2025-08-05T19:49:56.197093782Z,-0.062249,-0.286107,9.866506,-0.013183,-0.007324,-0.055394
2025-08-05T19:49:56.216889061Z,-0.150835,-0.488417,9.497798,0.000399,-0.008389,-0.074568
2025-08-05T19:49:56.236842050Z,0.009577,-0.147243,9.861717,-0.000000,-0.010120,-0.100135
2025-08-05T19:49:56.256426963Z,-0.074220,-0.181959,9.799467,-0.000932,-0.011318,-0.053263
2025-08-05T19:49:56.276493339Z,-0.189142,-0.208296,9.665392,-0.006658,-0.007856,-0.044741
2025-08-05T19:49:56.296515861Z,-0.134075,-0.217872,9.560047,-0.001997,-0.007324,-0.038349
2025-08-05T19:49:56.316042126Z,-0.027533,-0.323217,9.889549,0.006258,-0.015180,-0.032491
2025-08-05T19:49:56.375706249Z,-0.140061,-0.204704,9.362825,0.009987,0.004261,-0.038882
2025-08-05T19:49:56.395645749Z,-0.164003,-0.124498,9.793781,0.007590,-0.002663,-0.027164
2025-08-05T19:49:56.415436132Z,-0.023942,-0.318429,9.717167,-0.016245,-0.013982,-0.032491
2025-08-05T19:49:56.435311100Z,0.307655,-0.374693,9.516054,-0.028895,-0.006258,-0.032491
2025-08-05T19:49:56.455164088Z,-0.166397,-0.107739,9.640553,0.000666,-0.003995,0.001598
2025-08-05T19:49:56.475039264Z,0.123301,-0.259771,9.626187,-0.003862,-0.012783,-0.010120
2025-08-05T19:49:56.514787325Z,0.009577,-0.173580,9.750686,-0.013982,-0.022237,-0.017577
2025-08-05T19:49:56.534859013Z,-0.164003,-0.228646,9.539996,0.001864,0.000799,-0.038882
2025-08-05T19:49:56.554702783Z,-0.064643,-0.187945,9.563938,0.011585,0.002796,-0.023968
2025-08-05T19:49:56.574379676Z,0.092177,-0.257377,9.659706,-0.016778,-0.006525,-0.028229
2025-08-05T19:49:56.594274956Z,-0.343568,-0.324414,10.205584,-0.006258,-0.017177,-0.014381
2025-08-05T19:49:56.614112892Z,-0.313640,-0.154426,9.836877,0.025167,-0.016645,-0.020773
2025-08-05T19:49:56.673724774Z,-0.026336,-0.040701,9.765051,0.003196,-0.007191,-0.032491
2025-08-05T19:49:56.693640420Z,0.441730,-0.575805,9.583092,-0.066579,-0.005193,-0.037817
2025-08-05T19:49:56.713492054Z,-0.387861,-0.107739,10.301353,0.020373,-0.018908,0.025034
2025-08-05T19:49:56.733361917Z,-0.092177,-0.333991,10.229526,0.013449,-0.015979,-0.065514
2025-08-05T19:49:56.753231156Z,-0.227449,-0.284910,9.961375,0.022104,-0.007856,-0.046339
2025-08-05T19:49:56.773084873Z,0.126893,-0.464475,9.645341,-0.039548,-0.012251,-0.003728
2025-08-05T19:49:56.793003800Z,0.148441,-0.390255,10.085874,-0.025566,-0.007856,-0.034621
2025-08-05T19:49:56.832707172Z,0.063446,-0.373495,10.028413,-0.021305,-0.004661,-0.065514
2025-08-05T19:49:56.852575369Z,0.003591,-0.354342,9.731532,-0.041945,-0.013449,0.085754
2025-08-05T19:49:56.872449139Z,-0.361524,0.413000,9.702802,0.076433,0.002397,-0.125168
2025-08-05T19:49:56.892330305Z,0.155623,-0.428562,9.472959,0.004527,-0.005060,-0.021838
2025-08-05T19:49:56.912176783Z,0.375890,-0.019154,9.626187,-0.007057,-0.010386,0.006924
2025-08-05T19:49:56.932050813Z,-0.545878,-0.204704,9.879972,0.027431,-0.013449,-0.016512
2025-08-05T19:49:56.991666914Z,-0.003591,-0.538695,9.908703,-0.028096,-0.001731,-0.000533
2025-08-05T19:49:57.011547663Z,0.487220,-0.928950,9.664495,-0.118377,0.005593,-0.021838
2025-08-05T19:49:57.031396797Z,-0.751779,-0.123301,9.879972,0.041013,-0.012117,0.007989
2025-08-05T19:49:57.051294369Z,-0.189142,-0.577003,9.616611,-0.010653,-0.007989,-0.014381
2025-08-05T19:49:57.071152045Z,-0.557849,0.026336,9.420286,0.073104,-0.004927,-0.005859
2025-08-05T19:49:57.091062430Z,0.653617,-0.322020,9.659706,0.026765,-0.023569,-0.028229
2025-08-05T19:49:57.130783876Z,-0.424971,0.007183,9.765051,0.064848,-0.034887,0.051665
2025-08-05T19:49:57.150644729Z,-0.114922,-0.323217,9.745897,0.035819,-0.003995,-0.079362
2025-08-05T19:49:57.170497613Z,-0.326809,0.019154,9.372402,0.038616,-0.008655,0.018642
2025-08-05T19:49:57.190454092Z,-0.280122,-0.514753,9.410709,-0.017311,-0.003862,-0.010120
2025-08-05T19:49:57.210305830Z,-0.175974,-0.298078,9.894338,0.011718,-0.013316,0.019707
2025-08-05T19:49:57.230336425Z,0.429759,-0.277727,9.037213,-0.005859,0.003462,0.003728
2025-08-05T19:49:57.289745492Z,-0.884658,-0.111330,9.611822,0.054462,-0.014781,-0.039947
2025-08-05T19:49:57.309585616Z,-0.073023,-0.138864,9.573515,0.031692,-0.010653,-0.028229
2025-08-05T19:49:57.329464959Z,-0.096965,-0.372298,9.549573,-0.024235,-0.002663,-0.025034
2025-08-05T19:49:57.349369354Z,-0.059855,0.039504,9.343672,0.025433,-0.006125,-0.049535
2025-08-05T19:49:57.369200207Z,-0.199916,-0.243011,9.415498,-0.012650,-0.001731,-0.033556
2025-08-05T19:49:57.389315021Z,-0.251391,-0.256180,9.875184,0.016112,-0.008655,-0.023968
2025-08-05T19:49:57.448725547Z,-0.065841,-0.207098,9.559150,-0.038616,-0.004927,-0.007989
2025-08-05T19:49:57.468619942Z,-0.126893,-0.243011,9.755474,0.068310,-0.011984,-0.041013
2025-08-05T19:49:57.488455326Z,-0.215478,-0.355539,9.464279,-0.046605,-0.000799,0.009587
2025-08-05T19:49:57.508337221Z,-0.205901,-0.037110,9.617508,0.039814,-0.015579,-0.030893
2025-08-05T19:49:57.528187032Z,-0.087388,-0.260968,9.957485,0.009055,-0.001598,-0.053263
2025-08-05T19:49:57.548067468Z,0.052672,-0.454898,9.732430,-0.047138,-0.009055,0.029827
2025-08-05T19:49:57.607699507Z,-0.276530,-0.335188,9.737218,0.018376,-0.020240,0.015979
2025-08-05T19:49:57.627535620Z,-0.113725,-0.396240,9.718064,-0.026632,0.001065,-0.037284
2025-08-05T19:49:57.647413974Z,-0.252588,-0.288501,9.832987,0.026498,-0.021705,0.011718
2025-08-05T19:49:57.667303837Z,-0.065841,-0.367510,9.670180,-0.033289,0.005859,-0.035154
2025-08-05T19:49:57.687167763Z,-0.229843,-0.221464,9.890448,0.035686,-0.028762,0.013848
2025-08-05T19:49:57.707023095Z,0.210690,-0.745794,9.823410,-0.082691,0.012916,-0.033023
2025-08-05T19:49:57.746768083Z,-0.094571,-0.360327,9.674969,-0.021438,-0.005060,-0.017044
2025-08-05T19:49:57.766623467Z,-0.111330,-0.032322,9.837775,0.053929,-0.021838,0.011718
2025-08-05T19:49:57.786536977Z,-0.286107,-0.203507,9.612720,0.053929,-0.014647,-0.023436
2025-08-05T19:49:57.806392309Z,0.090980,-0.574608,9.612720,-0.045141,0.006258,-0.002131
2025-08-05T19:49:57.826245454Z,0.025139,-0.010774,9.521740,0.009587,-0.015313,0.023436
2025-08-05T19:49:57.846134692Z,0.195127,-0.354342,9.871294,-0.035819,0.000000,-0.024501
2025-08-05T19:49:57.866011848Z,-0.026336,-0.057461,9.454702,-0.008655,-0.008123,0.013848
2025-08-05T19:49:57.905740898Z,-0.047884,-0.266953,10.010158,0.023169,-0.013183,-0.023436
2025-08-05T19:49:57.925620084Z,-0.008380,-0.250194,9.636662,0.025300,-0.018376,0.042611
2025-08-05T19:49:57.945468802Z,0.095768,-0.044293,9.636662,0.037018,-0.007989,-0.029827
2025-08-05T19:49:57.965328457Z,0.113725,-0.226252,9.421184,0.000000,-0.008922,0.025566
2025-08-05T19:49:57.985287019Z,0.034716,-0.499191,9.679757,-0.065247,0.002929,0.013848
2025-08-05T19:49:58.005096205Z,0.061052,-0.086191,9.655815,-0.004661,-0.011984,0.025566
2025-08-05T19:49:58.025171175Z,0.116119,0.199916,9.497798,0.053130,-0.021971,0.082025
2025-08-05T19:49:58.064686889Z,0.086191,-0.215478,9.617508,0.019974,-0.002530,-0.051133
2025-08-05T19:49:58.084591440Z,0.025139,-0.383072,9.780313,-0.023702,-0.011718,0.023436
2025-08-05T19:49:58.104434377Z,-0.089783,-0.295684,9.708488,-0.015446,-0.005459,-0.000000
2025-08-05T19:49:58.124294761Z,-0.044293,-0.134075,9.746795,0.021172,-0.015979,0.029827
2025-08-05T19:49:58.144216917Z,-0.172383,-0.116119,9.603143,0.015180,-0.011585,0.020240
2025-08-05T19:49:58.164058759Z,-0.189142,-0.492008,9.651027,-0.015180,-0.004661,0.008522
2025-08-05T19:49:58.184017999Z,0.105345,-0.192733,9.813833,0.000799,-0.006125,-0.006392
2025-08-05T19:49:58.203797288Z,-0.102951,-0.311246,9.703699,-0.031292,-0.006125,0.008522
2025-08-05T19:49:58.223673558Z,-0.089783,-0.032322,9.560047,0.052065,-0.018775,0.009587
2025-08-05T19:49:58.243548005Z,0.074220,-0.441730,10.029311,-0.026365,-0.006258,0.040480
2025-08-05T19:49:58.263438442Z,-0.043096,-0.002394,9.871294,0.034887,-0.009987,0.004261
2025-08-05T19:49:58.283291482Z,-0.165200,-0.525527,9.713276,-0.037284,-0.006258,0.057524
2025-08-05T19:49:58.303174471Z,-0.051475,-0.104148,9.756371,0.000399,-0.000533,-0.035154
2025-08-05T19:49:58.323025792Z,-0.216675,-0.566229,9.804255,-0.014514,-0.005193,0.010653
2025-08-05T19:49:58.362976616Z,-0.077812,-0.487220,9.851242,-0.025966,0.000000,0.013316
2025-08-05T19:49:58.382684811Z,-0.067038,0.011971,9.520843,0.076699,-0.021438,0.010120
2025-08-05T19:49:58.402519517Z,-0.186748,-0.411803,9.674071,-0.035553,-0.007057,0.023968
2025-08-05T19:49:58.422363235Z,-0.371101,-0.602142,9.678860,-0.019175,0.003063,0.012251
2025-08-05T19:49:58.442243203Z,0.201113,0.325611,9.798570,0.072038,-0.029428,0.033556
2025-08-05T19:49:58.462136973Z,-0.199916,-0.383072,9.578303,-0.036352,-0.002663,0.016512
2025-08-05T19:49:58.482195276Z,0.190339,-0.065841,9.693225,0.051399,-0.017710,0.023968
2025-08-05T19:49:58.502093786Z,-0.059855,-0.586579,9.884761,-0.066446,0.006658,0.017577
2025-08-05T19:49:58.521760470Z,0.146046,-0.059855,9.654918,0.006392,-0.015047,0.062318
2025-08-05T19:49:58.541624083Z,0.401029,0.010774,9.793781,0.047404,-0.015713,-0.001598
2025-08-05T19:49:58.561466967Z,-0.044293,-0.304064,9.535208,-0.047138,-0.000799,0.011185
2025-08-05T19:49:58.581416311Z,-0.219069,-0.300472,9.990106,0.001065,-0.015846,0.069775
2025-08-05T19:49:58.601237059Z,0.099359,-0.138864,9.549573,-0.000533,-0.004794,-0.004794
2025-08-05T19:49:58.621157913Z,0.456095,0.174777,9.544785,0.066313,-0.020373,0.017577
2025-08-05T19:49:58.680739118Z,-0.045490,-0.395043,9.894338,-0.033689,-0.011452,0.055926
2025-08-05T19:49:58.700577470Z,-0.125696,-0.422577,9.755474,-0.030626,0.010919,0.002663
2025-08-05T19:49:58.720454053Z,-0.490811,-0.533907,10.397120,0.113983,-0.038083,-0.027164
2025-08-05T19:49:58.740321052Z,0.124498,0.155623,9.429863,0.021572,-0.017311,0.016512
2025-08-05T19:49:58.760213832Z,-0.108936,-0.511162,10.219949,0.018908,-0.023303,0.018642
2025-08-05T19:49:58.780109009Z,-0.344765,-0.335188,9.693225,-0.026365,-0.006125,0.031425
2025-08-05T19:49:58.819787016Z,0.288501,-0.205901,9.750686,-0.035287,0.001465,0.025034
2025-08-05T19:49:58.839693286Z,-0.450110,-0.871489,10.157700,-0.034222,-0.002264,-0.017577
2025-08-05T19:49:58.859524191Z,0.108936,0.181959,9.630976,-0.006525,-0.013449,0.079362
2025-08-05T19:49:58.879477910Z,-0.077812,-0.557849,9.626187,0.014115,-0.006791,-0.019707
2025-08-05T19:49:58.899299908Z,-0.069432,-0.326809,9.879972,-0.036086,0.003063,0.017577
2025-08-05T19:49:58.919188834Z,0.478840,0.438139,9.788993,0.058723,-0.019042,0.034621
2025-08-05T19:49:58.939038177Z,0.548272,0.074220,9.559150,0.015180,-0.019441,0.020773
2025-08-05T19:49:58.998673341Z,-0.132878,-0.320823,9.554361,-0.019707,-0.008389,0.016512
2025-08-05T19:49:59.018504245Z,0.337582,0.245406,9.453805,0.034088,-0.011185,0.005859
2025-08-05T19:49:59.038387390Z,-0.217872,-0.430956,9.602245,-0.036219,-0.003995,0.013316
2025-08-05T19:49:59.058231524Z,-0.019154,-0.415394,9.731532,0.029694,-0.019308,0.020773
2025-08-05T19:49:59.078141961Z,-0.038307,-0.158017,9.358037,-0.031425,-0.003728,0.036752
2025-08-05T19:49:59.098183546Z,0.403423,-0.143652,9.827300,0.015579,-0.021705,0.026099
2025-08-05T19:49:59.137732020Z,-0.008380,-0.373495,9.645341,0.012650,-0.003462,0.017577
2025-08-05T19:49:59.157606780Z,-0.408211,-0.920571,9.760262,-0.102132,0.017843,-0.004794
2025-08-05T19:49:59.177628676Z,-0.149638,-0.275333,10.301353,0.023303,-0.008788,-0.017577
2025-08-05T19:49:59.197392601Z,-0.407014,-0.460884,9.736320,-0.027564,-0.002397,0.021838
2025-08-05T19:49:59.217214339Z,-0.124498,-0.160412,10.124181,0.030360,-0.016112,0.043143
2025-08-05T19:49:59.237108995Z,-0.035913,-0.246603,9.607034,-0.072038,0.003329,0.023968
2025-08-05T19:49:59.296695512Z,0.328006,-0.093374,9.803358,0.047937,-0.017311,0.004794
2025-08-05T19:49:59.316567459Z,-0.140061,-0.379481,9.573515,-0.052198,0.007457,0.022903
2025-08-05T19:49:59.336451073Z,0.213084,0.065841,9.377191,0.045407,-0.008389,-0.053796
2025-08-05T19:49:59.356313384Z,-0.519542,-0.374693,9.932645,-0.021705,-0.016112,0.027164
2025-08-05T19:49:59.376255696Z,-0.310049,-0.506374,9.525631,0.008256,-0.015979,0.009055
2025-08-05T19:49:59.396059101Z,-0.026336,-0.235829,9.477747,-0.050067,-0.002796,0.065514
2025-08-05T19:49:59.455659629Z,-0.427365,-0.638055,9.985317,-0.027697,0.000533,0.016512
2025-08-05T19:49:59.475791891Z,-0.132878,-0.153229,9.793781,0.002663,-0.017444,0.020773
2025-08-05T19:49:59.495393522Z,-0.226252,-0.383072,9.607034,-0.026898,-0.003462,0.020773
2025-08-05T19:49:59.515276251Z,-0.035913,-0.363919,9.640553,-0.024102,-0.013183,0.049535
2025-08-05T19:49:59.535207417Z,-0.032322,-0.286107,10.090662,-0.002397,0.004394,-0.026099
2025-08-05T19:49:59.555012071Z,-0.201113,-0.284910,10.181642,-0.034222,-0.011318,0.079362
2025-08-05T19:49:59.594770549Z,0.017957,0.198719,9.429863,-0.030893,-0.022637,0.071905
2025-08-05T19:49:59.614652496Z,-0.591368,-1.021127,9.870396,-0.048203,0.004261,-0.020773
2025-08-05T19:49:59.634513661Z,0.250194,0.207098,9.343672,0.008922,-0.013715,0.045274
2025-08-05T19:49:59.654383629Z,-0.005986,-0.383072,9.980529,0.009321,-0.019308,0.029295
2025-08-05T19:49:59.674298910Z,-0.660800,-0.579397,9.286211,-0.067245,-0.001465,0.041013
2025-08-05T19:49:59.694127523Z,0.044293,-0.354342,9.879972,-0.011851,-0.009454,-0.001598
2025-08-05T19:49:59.714002074Z,-0.061052,-0.511162,10.344448,-0.067378,-0.007057,0.087884
2025-08-05T19:49:59.753738884Z,-0.049081,0.022745,9.712379,0.056459,0.005992,-0.051665
2025-08-05T19:49:59.773723020Z,0.486023,-0.019154,9.295788,-0.045806,0.001065,0.039947
2025-08-05T19:49:59.793482205Z,-0.173580,-0.470461,10.445004,0.049002,-0.017444,-0.003728
2025-08-05T19:49:59.813374204Z,-0.166397,-0.152032,9.195230,-0.004261,-0.000799,-0.011185
2025-08-05T19:49:59.833199380Z,-0.027533,-0.271742,9.434651,-0.065247,-0.001065,0.059122
2025-08-05T19:49:59.853088098Z,0.251391,-0.187945,9.247903,-0.034088,0.005326,-0.026099
2025-08-05T19:49:59.912679667Z,-0.246603,-0.707487,9.702802,-0.004927,-0.013582,0.034621
2025-08-05T19:49:59.932607240Z,-0.193930,-0.281319,9.755474,0.005326,0.008123,-0.021838
2025-08-05T19:49:59.952472103Z,-0.131681,-0.173580,10.382755,0.050733,-0.016911,0.005859
2025-08-05T19:49:59.972401290Z,-0.401029,-0.678756,10.253469,-0.026632,-0.001465,0.016512
2025-08-05T19:49:59.992241570Z,-0.114922,-0.446519,9.741109,-0.010919,0.002264,0.033556
2025-08-05T19:50:00.012061641Z,0.098162,-0.099359,9.185654,0.041945,-0.021971,0.050600
2025-08-05T19:50:00.071698055Z,-0.266953,-0.377087,9.688437,0.026632,-0.013449,0.028229
2025-08-05T19:50:00.091558075Z,0.073023,-0.192733,9.607034,-0.029694,0.011318,-0.019707
2025-08-05T19:50:00.111408876Z,0.341174,0.186748,9.314941,0.029162,-0.020773,0.039947
2025-08-05T19:50:00.131294729Z,-0.404620,-0.603339,9.803358,-0.022903,-0.002530,0.019707
2025-08-05T19:50:00.151141780Z,0.214281,-0.116119,9.156923,-0.024901,-0.003995,0.054861
2025-08-05T19:50:00.171231073Z,-0.259771,-0.404620,9.516054,-0.048336,-0.002131,0.009055
2025-08-05T19:50:00.210755381Z,-0.277727,-0.778116,10.004471,-0.100135,0.011452,0.093211
2025-08-05T19:50:00.230612692Z,0.502782,-0.324414,9.745897,0.013183,-0.015979,0.045274
2025-08-05T19:50:00.250494118Z,-0.022745,-0.815226,9.951798,-0.096273,0.011052,0.048469
2025-08-05T19:50:00.270424191Z,0.487220,-0.322020,9.611822,0.024501,-0.016112,-0.005859
2025-08-05T19:50:00.290255512Z,0.202310,0.171185,9.449017,-0.003063,-0.006924,-0.011185
2025-08-05T19:50:00.310142928Z,-0.080206,-0.514753,9.879972,-0.039681,-0.010386,0.078297
2025-08-05T19:50:00.369766060Z,-0.539892,-0.547075,10.416274,-0.058057,-0.008389,0.093211
2025-08-05T19:50:00.389612486Z,0.016759,-0.225055,9.391556,0.024102,0.005859,-0.069775
2025-08-05T19:50:00.409482298Z,-1.162385,-0.794875,9.769839,-0.059522,0.000266,0.033556
2025-08-05T19:50:00.429338046Z,0.023942,-0.131681,9.937433,0.034355,-0.017311,0.053796
2025-08-05T19:50:00.449241660Z,-0.074220,-0.125696,9.865607,-0.004527,-0.005593,0.035686
2025-08-05T19:50:00.469112566Z,0.299275,-0.305261,9.583092,0.012517,-0.009987,0.017577
2025-08-05T19:50:00.489003627Z,-0.238223,-0.760159,10.148123,-0.061119,0.008522,-0.014381
2025-08-05T19:50:00.528692573Z,-0.754174,-0.676362,9.942222,-0.008788,-0.021438,0.009055
2025-08-05T19:50:00.548561967Z,-0.137667,-0.168791,9.539996,-0.026632,-0.003196,0.027164
2025-08-05T19:50:00.568489696Z,-0.164003,-0.293290,9.879972,0.012916,-0.012384,-0.006924
2025-08-05T19:50:00.608173850Z,-0.378284,-0.678756,10.253469,-0.011718,-0.005193,-0.018642
2025-08-05T19:50:00.628052776Z,0.225055,-0.064643,9.726744,0.005459,0.001864,-0.001598
2025-08-05T19:50:00.687663668Z,0.271742,-0.244209,9.548974,-0.068310,-0.011984,0.107725
2025-08-05T19:50:00.707534886Z,-0.092177,-0.623690,10.063428,0.067911,-0.002796,-0.036752
2025-08-05T19:50:00.727431469Z,-0.603339,-0.715866,9.642049,-0.091879,0.007324,0.045274
2025-08-05T19:50:00.747288936Z,-0.624887,-0.641646,9.785701,-0.039148,0.003462,0.025034
2025-08-05T19:50:00.767190363Z,0.288501,-0.301669,10.063428,0.058589,-0.032491,0.031425
2025-08-05T19:50:00.787027674Z,0.041899,-0.235829,9.895834,0.034887,-0.021705,0.067644
2025-08-05T19:50:00.826761724Z,0.131681,-0.313640,9.603143,0.067245,-0.015047,0.008522
2025-08-05T19:50:00.846632316Z,0.064643,-0.337582,9.751583,-0.013582,-0.002796,0.038349
2025-08-05T19:50:00.866528586Z,-0.111330,-0.466869,9.818622,0.002397,-0.002929,-0.013848
2025-08-05T19:50:00.886369075Z,-0.179565,-0.336385,10.057143,0.016512,-0.016512,0.047404
2025-08-05T19:50:00.906278782Z,-0.053870,-0.253785,9.817723,-0.008522,0.001332,0.021838
2025-08-05T19:50:00.926108333Z,-0.003591,-0.162806,9.607034,0.010386,-0.015180,0.028229
2025-08-05T19:50:00.985720007Z,0.342371,-0.118513,9.779416,0.045939,-0.029961,0.029295
2025-08-05T19:50:01.005599766Z,-0.178368,-0.221464,9.630976,-0.022637,-0.000133,0.032491
2025-08-05T19:50:01.025487911Z,0.296881,-0.123301,9.487324,0.020906,-0.018509,0.049535
2025-08-05T19:50:01.045370952Z,-0.126893,-0.427365,9.654918,-0.005459,-0.006525,-0.028229
2025-08-05T19:50:01.065235191Z,-0.343568,-0.407014,9.745897,-0.020373,0.004527,0.002663
2025-08-05T19:50:01.085125315Z,-0.118513,-0.347159,9.707590,-0.010120,-0.009587,0.045274
2025-08-05T19:50:01.144726520Z,0.039504,-0.307655,9.717167,0.001864,-0.007191,0.023968
2025-08-05T19:50:01.164836334Z,-0.312443,-0.347159,9.736320,-0.015846,-0.000799,0.025034
2025-08-05T19:50:01.184460205Z,0.320823,-0.166397,9.597457,0.025167,-0.021705,0.032491
2025-08-05T19:50:01.204329235Z,-0.265756,-0.351948,9.616611,0.004394,-0.006125,-0.009055
2025-08-05T19:50:01.224188370Z,-0.149638,-0.294487,9.760262,0.011851,-0.005593,0.023968
2025-08-05T19:50:01.244049900Z,-0.052672,-0.216675,9.765051,0.004927,-0.007324,0.036752
2025-08-05T19:50:01.283842804Z,-0.207098,-0.232238,9.664495,0.005726,-0.009055,0.021838
2025-08-05T19:50:01.303679490Z,0.020351,-0.229843,9.721955,0.001198,-0.009055,0.023968
2025-08-05T19:50:01.323559354Z,-0.197522,-0.211887,9.698013,-0.012650,-0.004661,0.019707
2025-08-05T19:50:01.343434895Z,-0.021548,-0.240617,9.678860,-0.002929,-0.007989,0.026099
2025-08-05T19:50:01.363281841Z,0.147243,-0.264559,9.702802,0.024102,-0.016645,0.025034
2025-08-05T19:50:01.383156497Z,-0.237026,-0.234632,9.707590,0.003595,-0.006924,0.025034
2025-08-05T19:50:01.403036985Z,0.228646,-0.187945,9.698013,0.008389,-0.015713,0.035686
2025-08-05T19:50:01.442774108Z,-0.350751,-0.229843,9.683648,-0.000266,-0.004927,0.022903
2025-08-05T19:50:01.462674649Z,-0.043096,-0.281319,9.741109,0.009587,-0.008655,0.038882
2025-08-05T19:50:01.482513991Z,0.040701,-0.226252,9.736320,0.001997,-0.009055,0.038882
2025-08-05T19:50:01.502395470Z,-0.154426,-0.220267,9.669283,-0.000666,-0.009587,0.028229
2025-08-05T19:50:01.522285333Z,-0.254982,-0.227449,9.707590,0.003063,-0.005193,0.012251
2025-08-05T19:50:01.542191812Z,-0.147243,-0.221464,9.693225,0.002397,-0.009587,-0.001598
2025-08-05T19:50:01.562045894Z,-0.075417,-0.223858,9.698013,0.004794,-0.008389,-0.004794
2025-08-05T19:50:01.601741975Z,-0.096965,-0.235829,9.664495,0.026498,-0.011452,-0.005859
2025-08-05T19:50:01.641458368Z,-0.071826,-0.195127,9.678860,0.016378,-0.010919,-0.010120
2025-08-05T19:50:01.661366826Z,-0.083797,-0.241814,9.688437,0.023303,-0.013715,-0.013316
2025-08-05T19:50:01.681215543Z,-0.047884,-0.201113,9.698013,0.017444,-0.010919,-0.013316
2025-08-05T19:50:01.701099730Z,-0.053870,-0.219069,9.707590,0.017710,-0.007723,-0.012251
2025-08-05T19:50:01.760796145Z,-0.067038,-0.187945,9.698013,-0.000666,-0.010919,-0.017577
2025-08-05T19:50:01.780578143Z,-0.094571,-0.186748,9.707590,0.001598,-0.016778,-0.021838
2025-08-05T19:50:01.800455246Z,-0.086191,-0.205901,9.707590,-0.007324,-0.016778,-0.025034
2025-08-05T19:50:01.820318130Z,-0.081403,-0.211887,9.702802,-0.005992,-0.014381,-0.026099
2025-08-05T19:50:01.840183254Z,0.007183,-0.169988,9.707590,-0.000399,-0.008922,-0.025034
2025-08-05T19:50:01.860284110Z,-0.013168,-0.189142,9.698013,-0.003862,-0.004661,-0.019707
2025-08-05T19:50:01.880163348Z,-0.137667,-0.152032,9.745897,-0.005593,-0.008522,-0.026099
2025-08-05T19:50:01.919670677Z,0.019154,-0.199916,9.698013,-0.009854,-0.009854,-0.033556
2025-08-05T19:50:01.939568457Z,-0.058658,-0.219069,9.669283,-0.005459,-0.008256,-0.029295
2025-08-05T19:50:01.959482644Z,-0.090980,-0.223858,9.712379,0.006791,-0.008256,-0.027164
2025-08-05T19:50:01.979267455Z,-0.093374,-0.238223,9.693225,0.013982,-0.009721,-0.022903
2025-08-05T19:50:01.999155131Z,-0.149638,-0.235829,9.712379,0.013582,-0.006791,-0.032491
2025-08-05T19:50:02.019025307Z,-0.104148,-0.214281,9.693225,0.019175,-0.009987,-0.035686
2025-08-05T19:50:02.078619220Z,-0.310049,-0.257377,9.793781,-0.020506,-0.003862,-0.038882
2025-08-05T19:50:02.098525647Z,-0.459687,-0.294487,9.592669,-0.021172,-0.012384,-0.015446
2025-08-05T19:50:02.118387802Z,0.009577,-0.086191,9.721955,-0.001598,-0.011718,0.009055
2025-08-05T19:50:02.138217353Z,0.070629,-0.272939,9.674071,-0.003329,-0.008256,-0.030360
2025-08-05T19:50:02.158164925Z,-0.386664,-0.220267,9.741109,-0.010919,0.009587,-0.012251
2025-08-05T19:50:02.178006872Z,0.052672,-0.088585,9.736320,0.003196,-0.002796,-0.004794
2025-08-05T19:50:02.217748943Z,-0.049081,-0.225055,9.774628,0.000666,-0.005859,-0.042078
2025-08-05T19:50:02.237611567Z,0.179565,-0.129287,9.597457,-0.006924,-0.015313,-0.005859
2025-08-05T19:50:02.257523045Z,-0.108936,-0.186748,9.630976,-0.008922,-0.008922,-0.009055
2025-08-05T19:50:02.277402961Z,-0.161609,-0.417788,9.616611,0.003462,-0.009454,-0.034621
2025-08-05T19:50:02.297422045Z,-0.454898,-0.323217,9.568727,-0.001864,-0.001465,-0.060187
2025-08-05T19:50:02.317305242Z,-0.231040,-0.244209,9.841665,0.006924,-0.003329,-0.027164
2025-08-05T19:50:02.337155261Z,0.040701,-0.231040,9.698013,0.003995,-0.010253,-0.009055
2025-08-05T19:50:02.376741341Z,-0.270545,-0.158017,9.712379,0.003728,-0.002397,-0.007989
2025-08-05T19:50:02.396567089Z,0.038307,-0.093374,9.836877,-0.005459,-0.010253,0.001598
2025-08-05T19:50:02.416448515Z,-0.192733,-0.173580,9.741109,0.005060,-0.000932,-0.027164
2025-08-05T19:50:02.436333848Z,-0.057461,-0.108936,9.784204,-0.001198,-0.014248,-0.011185
2025-08-05T19:50:02.456266785Z,-0.028730,-0.175974,9.736320,-0.005726,-0.013582,-0.017577
2025-08-05T19:50:02.476137378Z,-0.228646,-0.223858,9.702802,0.005060,-0.009587,-0.035686
2025-08-05T19:50:02.535664936Z,-0.110133,-0.099359,9.774628,0.003862,-0.008522,-0.014381
2025-08-05T19:50:02.555603134Z,-0.330400,-0.338780,9.683648,-0.013848,0.002796,-0.032491
2025-08-05T19:50:02.575435705Z,-0.143652,-0.219069,9.865607,0.004794,-0.001598,-0.034621
2025-08-05T19:50:02.595293381Z,0.197522,-0.046687,9.812935,0.012916,-0.009854,-0.045274
2025-08-05T19:50:02.615152724Z,-0.034716,-0.055067,9.630976,-0.004794,-0.001598,-0.035686
2025-08-05T19:50:02.635015556Z,0.065841,-0.114922,9.793781,0.003063,-0.008788,-0.018642
2025-08-05T19:50:02.674789554Z,-0.027533,-0.158017,9.779416,0.007457,-0.012650,-0.035686
2025-08-05T19:50:02.694647074Z,0.184354,-0.063446,9.741109,0.012117,-0.006525,-0.035686
2025-08-05T19:50:02.714504385Z,-0.118513,-0.253785,9.554361,-0.007324,-0.000399,-0.046339
2025-08-05T19:50:02.734394874Z,0.008380,-0.158017,9.707590,0.005326,-0.007191,-0.028229
2025-08-05T19:50:02.754296665Z,-0.075417,-0.187945,9.788993,0.007457,-0.012517,-0.032491
2025-08-05T19:50:02.774136372Z,-0.126893,-0.186748,9.688437,0.003063,-0.007191,-0.035686
2025-08-05T19:50:02.794023163Z,-0.013168,-0.088585,9.698013,-0.002929,-0.007324,-0.026099
2025-08-05T19:50:02.833760911Z,-0.086191,-0.178368,9.856030,-0.014248,-0.006658,-0.042078
2025-08-05T19:50:02.853645358Z,-0.191536,-0.239420,9.726744,-0.005459,-0.008123,-0.016512
2025-08-05T19:50:02.873478606Z,-0.083797,-0.172383,9.774628,0.001198,-0.010120,-0.048469
2025-08-05T19:50:02.893373470Z,-0.263362,-0.254982,9.650129,-0.017577,-0.001065,-0.062318
2025-08-05T19:50:02.913224687Z,-0.112527,-0.193930,9.779416,-0.004661,-0.013049,-0.031425
2025-08-05T19:50:02.933118197Z,0.001197,-0.116119,9.736320,0.016911,-0.010786,-0.029295
2025-08-05T19:50:02.953004675Z,0.076614,-0.084994,9.765051,0.008256,-0.008788,-0.033556
2025-08-05T19:50:03.012566192Z,0.113725,-0.155623,9.798570,-0.000932,-0.009854,-0.037817
2025-08-05T19:50:03.032718247Z,-0.067038,-0.189142,9.611822,0.004394,-0.010653,-0.048469
2025-08-05T19:50:03.052325138Z,-0.136469,-0.195127,9.626187,-0.009454,-0.013715,-0.005859
2025-08-05T19:50:03.072165470Z,0.014365,-0.155623,9.712379,0.004394,-0.005459,-0.060187
2025-08-05T19:50:03.092065334Z,-0.241814,-0.359130,9.693225,-0.008788,-0.007191,-0.042078
2025-08-05T19:50:03.151683362Z,0.096965,-0.116119,9.860819,0.011052,-0.007590,-0.046339
2025-08-05T19:50:03.171560674Z,0.153229,-0.077812,9.539996,0.008655,-0.017044,-0.038882
2025-08-05T19:50:03.191589914Z,0.087388,-0.047884,9.654918,0.006924,-0.012384,-0.035686
2025-08-05T19:50:03.211290870Z,0.068235,-0.180762,9.731532,0.028629,-0.008922,-0.063383
2025-08-05T19:50:03.231158858Z,0.003591,-0.129287,9.683648,-0.002530,-0.006791,-0.014381
2025-08-05T19:50:03.251080806Z,-0.033519,-0.290895,9.669283,0.011452,-0.003995,-0.084688
2025-08-05T19:50:03.290781939Z,0.079009,-0.141258,9.659706,0.007590,-0.004394,-0.045274
2025-08-05T19:50:03.310646542Z,-0.007183,-0.167594,9.721955,0.003862,-0.003862,-0.049535
2025-08-05T19:50:03.330512603Z,-0.041899,-0.220267,9.750686,-0.011052,-0.006258,-0.044208
2025-08-05T19:50:03.350433769Z,-0.112527,-0.102951,9.769839,0.000266,-0.006924,-0.063383
2025-08-05T19:50:03.370238372Z,-0.044293,-0.114922,9.721955,0.000932,-0.010120,-0.052731
2025-08-05T19:50:03.390106048Z,-0.074220,-0.186748,9.674071,-0.008788,-0.011052,-0.061253
2025-08-05T19:50:03.410002266Z,-0.089783,-0.154426,9.726744,-0.007057,-0.010253,-0.067644
2025-08-05T19:50:03.449770378Z,0.021548,-0.198719,9.683648,0.005726,-0.009987,-0.064448
2025-08-05T19:50:03.469644148Z,0.045490,-0.193930,9.635764,0.002264,-0.002796,-0.060187
2025-08-05T19:50:03.489501251Z,-0.074220,-0.140061,9.587880,0.015313,-0.008788,-0.056992
2025-08-05T19:50:03.509400542Z,-0.035913,-0.366313,9.741109,-0.015047,-0.009321,-0.065514
2025-08-05T19:50:03.529241239Z,-0.026336,-0.189142,9.707590,0.006258,-0.011585,-0.056992
2025-08-05T19:50:03.549132405Z,-0.041899,-0.356736,9.621399,-0.004128,-0.012517,-0.039947
2025-08-05T19:50:03.569007997Z,-0.140061,-0.154426,9.659706,0.013183,-0.011585,-0.035686
2025-08-05T19:50:03.608728297Z,0.016759,-0.244209,9.583092,0.004128,-0.007457,-0.048469
2025-08-05T19:50:03.628830663Z,-0.084994,-0.160412,9.779416,0.027297,-0.009587,-0.061253
2025-08-05T19:50:03.648645266Z,-0.213084,-0.177171,9.630976,-0.012384,-0.015446,-0.065514
2025-08-05T19:50:03.668341742Z,-0.187945,0.069432,9.693225,-0.036885,-0.018109,-0.092145
2025-08-05T19:50:03.688193324Z,0.130484,-0.244209,9.836877,0.016911,-0.010120,-0.098537
2025-08-05T19:50:03.708087771Z,0.017957,-0.374693,9.736320,-0.055793,-0.006525,-0.046339
2025-08-05T19:50:03.767730747Z,0.023942,-0.045490,9.808146,0.006392,-0.002397,-0.093211
2025-08-05T19:50:03.787530037Z,-0.086191,-0.219069,9.937433,0.014781,-0.016645,-0.056992
2025-08-05T19:50:03.807405995Z,0.053870,-0.165200,9.788993,-0.012517,-0.003063,-0.059122
2025-08-05T19:50:03.827315234Z,0.278924,-0.143652,9.745897,-0.004261,-0.003462,-0.049535
2025-08-05T19:50:03.847345516Z,-0.123301,-0.300472,9.688437,-0.004527,-0.011185,-0.035686
2025-08-05T19:50:03.867047929Z,0.076614,-0.149638,9.832088,0.009454,-0.008389,-0.056992
2025-08-05T19:50:03.906817813Z,-0.203507,-0.314838,9.856030,-0.000399,-0.008256,-0.036752
2025-08-05T19:50:03.926657520Z,-0.005986,-0.117316,9.645341,0.003995,-0.013449,-0.072971
2025-08-05T19:50:03.946716084Z,-0.022745,0.205901,9.865607,0.017311,-0.005060,-0.061253
2025-08-05T19:50:03.966371205Z,-0.144849,-0.288501,9.511266,-0.022770,-0.005193,-0.011185
2025-08-05T19:50:03.986275652Z,-0.306458,-0.296881,9.520843,0.014115,-0.012650,-0.070840
2025-08-05T19:50:04.006118588Z,-0.257377,0.008380,10.143334,0.041812,-0.006924,-0.062318
2025-08-05T19:50:04.026000692Z,-0.167594,-0.383072,9.444228,-0.008123,-0.012916,-0.055926
2025-08-05T19:50:04.065728179Z,0.061052,-1.114501,9.630976,-0.089748,-0.000932,-0.086819
2025-08-05T19:50:04.085608720Z,-0.068235,-0.572214,9.568727,-0.035287,-0.011318,-0.088950
2025-08-05T19:50:04.105763118Z,-0.056264,-0.281319,9.961375,0.001198,-0.008123,-0.100667
2025-08-05T19:50:04.125348343Z,-0.228646,-0.032322,9.788993,-0.012916,-0.006658,-0.047404
2025-08-05T19:50:04.145271696Z,-0.062249,-0.319626,9.717167,-0.013715,-0.006924,-0.043143
2025-08-05T19:50:04.165164998Z,-0.238223,-0.472855,9.816227,0.005459,-0.014914,-0.050600
2025-08-05T19:50:04.224762713Z,-0.114922,-0.257377,9.648633,-0.013449,-0.003862,-0.083623
2025-08-05T19:50:04.244618254Z,0.096965,-0.304064,9.734824,-0.019175,-0.007590,-0.062318
2025-08-05T19:50:04.264464575Z,-0.196325,0.160412,9.911995,0.024901,-0.004128,-0.056992
2025-08-05T19:50:04.284335272Z,-0.102951,-0.380678,9.753978,-0.017177,-0.009987,-0.034621
2025-08-05T19:50:04.304193833Z,-0.149638,0.283713,9.816227,0.044475,-0.001731,-0.072971
2025-08-05T19:50:04.324069582Z,0.199916,0.050278,9.821015,-0.006791,-0.001997,-0.078297
2025-08-05T19:50:04.383675006Z,0.051475,0.243011,9.926360,-0.008389,-0.009321,-0.059122
2025-08-05T19:50:04.403560391Z,0.026336,-0.038307,9.715671,0.005859,-0.006924,-0.070840
2025-08-05T19:50:04.423405098Z,0.056264,-0.326809,9.749189,-0.038349,-0.010919,-0.031425
2025-08-05T19:50:04.443270482Z,-0.055067,-0.017957,9.600749,0.011318,-0.004527,-0.075101
2025-08-05T19:50:04.463162377Z,-0.234632,-0.028730,9.581595,-0.005459,-0.014647,-0.037817
2025-08-05T19:50:04.483021720Z,-0.088585,-0.201113,9.677363,-0.011052,-0.012384,-0.033556
2025-08-05T19:50:04.522366807Z,-0.061052,-0.128090,9.639056,-0.010786,-0.000932,-0.048469
2025-08-05T19:50:04.542730843Z,-0.208296,0.125696,9.643845,0.060587,-0.004527,-0.075101
2025-08-05T19:50:04.562528205Z,-0.211887,0.304064,9.792285,-0.000533,-0.012251,-0.013316
2025-08-05T19:50:04.582371350Z,0.016759,-0.021548,9.806650,0.022237,-0.004794,-0.001598
2025-08-05T19:50:04.602273610Z,-0.055067,-0.128090,9.739613,0.035553,-0.011052,-0.002663
2025-08-05T19:50:04.622175973Z,-0.399832,-1.090559,10.103531,-0.050201,-0.016778,-0.066579
2025-08-05T19:50:04.642003909Z,-0.276530,0.041899,10.007763,-0.008655,-0.011052,-0.098537
2025-08-05T19:50:04.681739522Z,0.069432,-0.310049,9.945514,-0.015713,-0.009987,-0.032491
2025-08-05T19:50:04.701627042Z,-0.207098,0.039504,9.878476,0.035686,-0.008655,-0.050600
2025-08-05T19:50:04.721480343Z,-0.019154,0.229843,9.854534,0.010519,-0.006125,-0.090015
2025-08-05T19:50:04.741368227Z,-0.319626,-0.106542,9.619903,0.017843,-0.010919,-0.043143
2025-08-05T19:50:04.761258195Z,-0.149638,0.137667,9.691729,0.032890,-0.011185,-0.034621
2025-08-05T19:50:04.781090871Z,-0.183156,-0.031125,9.964667,-0.020906,-0.008123,-0.067644
2025-08-05T19:50:04.840698951Z,-0.093374,-0.189142,9.830592,0.002264,-0.011185,-0.055926
2025-08-05T19:50:04.860574440Z,-0.185551,0.056264,9.840169,0.030759,-0.014914,-0.062318
2025-08-05T19:50:04.880433470Z,-0.058658,0.050278,9.763555,0.008256,-0.007457,-0.053796
2025-08-05T19:50:04.900305469Z,-0.153229,-0.026336,10.117896,0.037151,-0.011585,-0.046339
2025-08-05T19:50:04.920199551Z,-0.087388,0.275333,9.662998,-0.013848,-0.001198,-0.036752
2025-08-05T19:50:04.940084050Z,-0.083797,-0.517148,9.667787,0.006791,-0.015979,-0.028229
2025-08-05T19:50:04.999674682Z,-0.076614,-0.116119,9.481039,-0.004661,-0.006258,-0.074036
2025-08-05T19:50:05.019558765Z,-0.154426,0.086191,9.864111,0.016778,-0.002530,-0.059122
2025-08-05T19:50:05.039450816Z,-0.308852,0.107739,9.567230,-0.001065,-0.005459,-0.031425
2025-08-05T19:50:05.059340003Z,-0.031125,-0.196325,9.667787,0.002397,-0.004128,-0.066579
2025-08-05T19:50:05.079161064Z,-0.107739,0.071826,9.471462,0.016911,-0.004927,-0.097472
2025-08-05T19:50:05.099043583Z,0.020351,-0.181959,9.696517,-0.007191,-0.014381,-0.043143
2025-08-05T19:50:05.158660101Z,-0.055067,0.033519,9.710882,0.001065,-0.005859,-0.074036
2025-08-05T19:50:05.178516058Z,-0.010774,-0.252588,9.677363,-0.031292,-0.004527,-0.026099
2025-08-05T19:50:05.198366078Z,0.000000,-0.418985,9.610326,-0.004394,-0.004661,-0.064448
2025-08-05T19:50:05.218257192Z,-0.177171,-0.150835,9.849746,-0.000399,-0.012517,-0.049535
2025-08-05T19:50:05.238138462Z,0.169988,-0.347159,9.634268,-0.013449,-0.013582,-0.051665
2025-08-05T19:50:05.297951440Z,-0.161609,-0.047884,9.992500,0.028895,-0.009188,-0.087352
2025-08-05T19:50:05.317616926Z,-0.043096,-0.247800,9.666888,-0.027164,-0.015713,-0.041545
2025-08-05T19:50:05.337575541Z,-0.070629,-0.032322,9.753080,0.031026,-0.006791,-0.063916
2025-08-05T19:50:05.357377330Z,0.047884,0.171185,10.130167,0.008389,-0.001997,-0.061785
2025-08-05T19:50:05.377284226Z,0.004788,-0.098162,9.794978,-0.013049,-0.007457,-0.031958
2025-08-05T19:50:05.397131954Z,0.020351,-0.573411,9.469367,-0.013582,-0.012117,-0.030893
2025-08-05T19:50:05.456722950Z,-0.058658,0.304064,10.016442,0.040879,0.001731,-0.071373
2025-08-05T19:50:05.476609220Z,-0.162806,0.281319,9.915886,-0.008256,-0.008788,-0.006392
2025-08-05T19:50:05.496451792Z,0.013168,-0.414197,9.733926,-0.007856,-0.006525,-0.039415
2025-08-05T19:50:05.516313322Z,-0.124498,-0.110133,9.753080,-0.005459,-0.011318,-0.030893
2025-08-05T19:50:05.536243186Z,0.090980,-0.282516,9.628581,-0.002663,-0.006392,-0.034088
2025-08-05T19:50:05.556045549Z,-0.034716,-0.299275,10.064326,-0.022770,-0.013049,-0.052198
2025-08-05T19:50:05.615650660Z,-0.180762,-0.140061,9.566332,0.000533,-0.011585,-0.056459
2025-08-05T19:50:05.635628806Z,-0.086191,-0.260968,9.642946,-0.028229,-0.008788,-0.036219
2025-08-05T19:50:05.655388981Z,-0.215478,-0.081403,9.676465,0.020906,-0.002929,-0.071373
2025-08-05T19:50:05.675509368Z,0.179565,-0.492008,9.767446,-0.022770,-0.015846,-0.039415
2025-08-05T19:50:05.695160740Z,-0.041899,-0.227449,9.642946,-0.004661,-0.007324,-0.062851
2025-08-05T19:50:05.715042582Z,-0.052672,0.040701,9.863214,-0.004927,-0.004661,-0.033023
2025-08-05T19:50:05.754795018Z,0.051475,-0.295684,9.686042,0.005459,-0.009454,-0.047937
2025-08-05T19:50:05.774648110Z,-0.143652,0.153229,9.781811,0.010653,-0.010253,-0.051133
2025-08-05T19:50:05.794514745Z,-0.051475,0.057461,9.791388,0.024901,-0.009721,-0.061785
2025-08-05T19:50:05.814384452Z,0.050278,-0.407014,9.647735,-0.038349,-0.016512,-0.008522
2025-08-05T19:50:05.834297754Z,0.329203,-0.440533,9.657311,-0.003196,-0.001198,-0.055394
2025-08-05T19:50:05.854122200Z,-0.071826,-0.155623,9.508871,0.008522,-0.006125,-0.049002
2025-08-05T19:50:05.913737311Z,0.000000,-0.108936,9.724349,-0.011318,-0.009854,-0.056459
2025-08-05T19:50:05.933633790Z,-0.015562,0.098162,9.724349,0.015846,-0.006658,-0.050067
2025-08-05T19:50:05.953491466Z,-0.008380,-0.245406,9.810541,-0.008922,-0.015713,-0.038349
2025-08-05T19:50:05.973360079Z,0.155623,-0.080206,9.777022,-0.001198,-0.003728,-0.076699
2025-08-05T19:50:05.993251453Z,-0.049081,-0.306458,9.657311,-0.000000,-0.008922,-0.057524
2025-08-05T19:50:06.013103400Z,-0.201113,0.153229,9.810541,0.009321,-0.007057,-0.047937
2025-08-05T19:50:06.072931483Z,0.061052,-0.174777,9.853337,0.023702,-0.010786,-0.003196
2025-08-05T19:50:06.092596657Z,-0.150835,-0.079009,9.728839,0.009854,-0.010919,-0.022371
2025-08-05T19:50:06.112445114Z,-0.088585,-0.147243,9.738416,-0.013316,-0.010519,0.006392
2025-08-05T19:50:06.132338519Z,-0.041899,-0.150835,9.700109,-0.011452,-0.012517,0.010653
2025-08-05T19:50:06.152190882Z,0.000000,-0.017957,9.810242,-0.004527,-0.002796,-0.025566
2025-08-05T19:50:06.172059652Z,-0.233435,-0.432153,10.064027,-0.032624,-0.011185,-0.035154
2025-08-05T19:50:06.231667524Z,0.003591,-0.154426,9.762358,0.002796,-0.005726,-0.045806
2025-08-05T19:50:06.251568898Z,-0.053870,-0.240617,9.925163,-0.007856,-0.007057,-0.063916
2025-08-05T19:50:06.271403761Z,0.041899,-0.365116,9.666590,-0.021039,-0.005726,-0.043676
2025-08-05T19:50:06.291316386Z,0.063446,-0.349553,9.637859,-0.012384,-0.007457,-0.034088
2025-08-05T19:50:06.311164374Z,-0.025139,-0.362722,9.733627,-0.012916,-0.006658,-0.059655
2025-08-05T19:50:06.331049707Z,-0.263362,0.108936,9.676167,0.022903,-0.003862,-0.061785
2025-08-05T19:50:06.390649922Z,-0.120907,-0.274136,9.542090,-0.002131,-0.014115,-0.040480
2025-08-05T19:50:06.410497910Z,-0.116119,-0.229843,9.589975,-0.008522,-0.003595,-0.054328
2025-08-05T19:50:06.430400951Z,-0.351948,-0.049081,9.786300,0.031558,-0.010386,-0.047937
2025-08-05T19:50:06.450274877Z,0.129287,-0.229843,9.599552,-0.032890,-0.008389,-0.038349
2025-08-05T19:50:06.470122501Z,-0.077812,-0.149638,9.757569,0.005193,-0.004394,-0.040480
2025-08-05T19:50:06.490006740Z,-0.161609,0.160412,9.762358,-0.000932,-0.008123,-0.018109
2025-08-05T19:50:06.529779176Z,-0.057461,-0.047884,9.953894,-0.008256,-0.017311,-0.047937
2025-08-05T19:50:06.549640289Z,-0.215478,-0.063446,9.733627,0.000133,-0.007989,-0.024501
2025-08-05T19:50:06.569452600Z,-0.025139,-0.302867,9.604341,-0.019175,-0.007324,-0.011718
2025-08-05T19:50:06.589356734Z,-0.232238,0.020351,9.704897,0.022371,-0.007989,-0.005326
2025-08-05T19:50:06.609230296Z,-0.039504,-0.108936,9.896433,-0.019308,-0.014781,-0.007457
2025-08-05T19:50:06.629105160Z,0.106542,-0.142455,9.762358,0.006392,-0.007191,-0.014914
2025-08-05T19:50:06.688681677Z,-0.290895,0.089783,9.518148,-0.003862,-0.007324,-0.022371
2025-08-05T19:50:06.708557218Z,-0.081403,-0.190339,9.838972,0.015313,-0.010120,0.004261
2025-08-05T19:50:06.728484217Z,-0.154426,-0.304064,9.585187,-0.013449,-0.014647,-0.003196
2025-08-05T19:50:06.748348091Z,-0.022745,-0.102951,9.628283,0.025433,-0.006392,-0.041545
2025-08-05T19:50:06.768174204Z,-0.029928,-0.292093,9.719262,-0.012251,-0.013049,-0.001065
2025-08-05T19:50:06.788076933Z,-0.035913,-0.190339,9.752781,-0.000799,-0.012251,-0.034088
2025-08-05T19:50:06.847675169Z,-0.007183,-0.026336,9.647436,0.014514,-0.006125,-0.008522
2025-08-05T19:50:06.867573314Z,0.153229,-0.533907,9.417592,-0.044608,-0.011984,0.011718
2025-08-05T19:50:06.887429479Z,-0.112527,-0.136469,9.786300,0.008389,-0.012517,0.000000
2025-08-05T19:50:06.907273457Z,0.005986,-0.246603,9.743204,0.006392,-0.009321,0.003196
2025-08-05T19:50:06.927207332Z,-0.123301,-0.271742,9.618706,0.002264,-0.010386,0.017044
2025-08-05T19:50:06.947023705Z,-0.077812,-0.130484,9.532514,-0.027697,-0.002264,-0.002131
2025-08-05T19:50:06.986986612Z,-0.071826,0.184354,9.973047,0.021705,-0.010120,-0.028762
2025-08-05T19:50:07.006617566Z,0.000000,-0.111330,9.819818,-0.010653,-0.011718,-0.010653
2025-08-05T19:50:07.026533837Z,0.187945,-0.203507,9.714474,-0.027963,-0.002929,-0.001065
2025-08-05T19:50:07.046397398Z,-0.007183,-0.210690,9.709685,-0.003063,-0.009587,0.013848
2025-08-05T19:50:07.066261116Z,-0.132878,-0.092177,9.743204,0.005459,0.002397,-0.006392
2025-08-05T19:50:07.086108479Z,-0.153229,-0.205901,9.618706,-0.007324,-0.012783,0.037284
2025-08-05T19:50:07.106004020Z,0.010774,-0.434548,9.599552,-0.013316,-0.012117,0.009587
2025-08-05T19:50:07.145768904Z,-0.134075,-0.161609,9.719262,0.015713,-0.006791,-0.003196
2025-08-05T19:50:07.165653507Z,0.011971,-0.289698,9.671378,-0.018376,-0.000666,0.003196
2025-08-05T19:50:07.185488318Z,0.191536,-0.143652,9.915586,-0.021172,-0.005060,-0.018109
2025-08-05T19:50:07.205380213Z,0.039504,-0.323217,9.633071,-0.018109,-0.008655,-0.028762
2025-08-05T19:50:07.225266066Z,-0.086191,-0.415394,9.843760,-0.017444,-0.013049,-0.014914
2025-08-05T19:50:07.245116971Z,0.003591,-0.166397,9.882068,0.019308,-0.014914,-0.015979
2025-08-05T19:50:07.304717499Z,0.041899,-0.276530,9.647436,0.009055,-0.008256,-0.022371
2025-08-05T19:50:07.324654916Z,-0.217872,0.144849,9.752781,-0.008389,-0.008522,0.008522
2025-08-05T19:50:07.344458633Z,0.199916,-0.401029,9.470264,-0.027564,-0.003196,0.001065
2025-08-05T19:50:07.364309954Z,-0.165200,-0.093374,9.724051,0.012783,-0.008922,0.003196
2025-08-05T19:50:07.384179922Z,0.022745,-0.017957,9.738416,-0.018642,-0.005859,0.009587
2025-08-05T19:50:07.404040567Z,0.027533,-0.604536,9.685743,-0.015579,-0.009721,0.018109
2025-08-05T19:50:07.463683439Z,0.130484,-0.344765,9.695320,-0.010519,0.000133,0.003196
2025-08-05T19:50:07.483545958Z,-0.398635,0.122104,9.556456,0.019175,-0.015846,0.054328
2025-08-05T19:50:07.503436864Z,0.107739,-0.354342,9.781511,-0.005593,-0.007324,0.024501
2025-08-05T19:50:07.523318498Z,-0.112527,0.010774,9.700109,0.007324,-0.007989,0.024501
2025-08-05T19:50:07.543173726Z,-0.014365,-0.374693,9.791088,-0.028762,-0.008788,0.056459
2025-08-05T19:50:07.563056194Z,-0.063446,-0.098162,9.757569,0.016245,-0.006125,0.029827
2025-08-05T19:50:07.602783109Z,-0.058658,0.061052,9.690532,-0.007723,-0.006258,0.050067
2025-08-05T19:50:07.642504867Z,-0.058658,-0.075417,9.757569,-0.025034,-0.001864,0.028762
2025-08-05T19:50:07.662414574Z,-0.107739,-0.210690,9.671378,-0.036752,-0.000932,0.038349
2025-08-05T19:50:07.682254177Z,-0.061052,-0.204704,9.719262,-0.025433,-0.007191,0.026632
2025-08-05T19:50:07.702168729Z,-0.027533,-0.235829,9.709685,-0.012650,-0.011718,0.046872
2025-08-05T19:50:07.722237917Z,0.011971,-0.064643,9.685743,-0.010253,-0.008922,0.058589
2025-08-05T19:50:07.742078041Z,-0.347159,-0.331597,9.676167,0.002131,-0.015313,0.037284
2025-08-05T19:50:07.761955301Z,-0.187945,-0.339977,9.805453,-0.010519,-0.019308,-0.010653
2025-08-05T19:50:07.781604797Z,-0.056264,-0.142455,9.743204,-0.030360,-0.014514,-0.023436
2025-08-05T19:50:07.801512734Z,0.062249,-0.141258,9.652225,-0.025966,-0.011984,-0.022371
2025-08-05T19:50:07.821393483Z,0.061052,-0.278924,9.704897,-0.006392,-0.003196,-0.026632
2025-08-05T19:50:07.841203398Z,0.128090,-0.365116,9.685743,-0.012916,-0.012916,-0.010653
2025-08-05T19:50:07.861305139Z,-0.043096,-0.168791,9.714474,0.027164,-0.009854,-0.013848
2025-08-05T19:50:07.901001949Z,-0.144849,0.114922,9.862914,0.006791,-0.006258,-0.012783
2025-08-05T19:50:07.921083482Z,-0.067038,-0.238223,9.709685,0.011585,-0.011452,-0.010653
2025-08-05T19:50:07.940569799Z,-0.010774,-0.311246,9.661801,-0.004794,-0.009321,-0.015979
2025-08-05T19:50:07.960452006Z,-0.063446,-0.144849,9.762358,-0.002663,-0.007590,-0.014914
2025-08-05T19:50:07.980527133Z,0.011971,-0.248997,9.618706,0.015180,-0.013183,-0.009587
2025-08-05T19:50:08.000394132Z,-0.010774,-0.202310,9.733627,0.032890,0.005593,-0.002131
2025-08-05T19:50:08.020406028Z,0.822408,-0.314838,9.838972,-0.019707,-0.002663,0.112918
2025-08-05T19:50:08.040156255Z,0.023942,-0.195127,9.551667,-0.045540,-0.014647,0.129962
2025-08-05T19:50:08.079659104Z,0.079009,-0.369904,9.642648,-0.042611,-0.012916,0.121440
2025-08-05T19:50:08.099559489Z,0.174777,-0.270545,9.613917,-0.004394,-0.015579,0.091613
2025-08-05T19:50:08.119441853Z,0.458490,-0.119710,9.781511,-0.002530,0.004794,0.017044
2025-08-05T19:50:08.139289372Z,0.737414,-0.131681,9.953894,0.014514,0.001065,-0.022371
2025-08-05T19:50:08.159187413Z,0.599748,-0.254982,9.561244,0.051798,-0.014647,-0.089482
2025-08-05T19:50:08.179064516Z,0.169988,-0.634463,9.776723,0.012251,-0.001731,-0.190682
2025-08-05T19:50:08.238671659Z,-0.079009,-0.460884,10.025720,0.001198,0.003995,-0.197074
2025-08-05T19:50:08.258518605Z,0.062249,-0.190339,9.403227,0.013449,-0.011185,-0.171507
2025-08-05T19:50:08.278409146Z,-0.177171,-0.359130,9.628283,-0.021039,-0.016512,-0.188552
2025-08-05T19:50:08.298268020Z,-0.158017,-0.179565,9.920375,-0.011052,-0.009721,-0.189617
2025-08-05T19:50:08.318279344Z,-0.039504,-0.140061,9.695320,0.002929,-0.019574,-0.177899
2025-08-05T19:50:08.338005508Z,0.040701,-0.013168,9.738416,-0.009854,-0.011585,-0.149137
2025-08-05T19:50:08.397632025Z,0.226252,-0.084994,9.666590,0.039548,-0.010120,-0.111853
2025-08-05T19:50:08.417482410Z,-0.113725,-0.155623,9.824607,0.021838,-0.007324,-0.136354
2025-08-05T19:50:08.437351908Z,0.240617,-0.130484,9.484630,-0.015846,-0.009188,-0.113983
2025-08-05T19:50:08.457203386Z,0.055067,-0.354342,9.546879,-0.003196,-0.017577,-0.105461
2025-08-05T19:50:08.477093511Z,-0.079009,-0.250194,9.728839,-0.014781,-0.011585,-0.124636
2025-08-05T19:50:08.497024729Z,-0.345962,-0.167594,9.676167,-0.000000,-0.006392,-0.078829
2025-08-05T19:50:08.536723414Z,-0.580594,-0.369904,9.752781,-0.032890,0.009854,-0.074568
2025-08-05T19:50:08.556592132Z,-0.095768,-0.025139,9.609129,0.011984,-0.018908,0.000000
2025-08-05T19:50:08.576446735Z,-0.474052,-0.401029,9.623494,-0.012517,-0.005060,-0.028762
2025-08-05T19:50:08.596321390Z,-0.023942,-0.101754,9.518148,-0.009854,-0.012517,-0.028762
2025-08-05T19:50:08.616232191Z,-0.774524,-0.488417,9.575610,-0.025167,0.000266,-0.055394
2025-08-05T19:50:08.636086690Z,0.122104,-0.058658,9.714474,-0.001997,-0.026365,0.020240
2025-08-05T19:50:08.695657530Z,0.074220,-0.389058,9.704897,-0.007856,-0.004394,-0.090547
2025-08-05T19:50:08.715578019Z,-0.141258,-0.417788,9.843760,0.006392,-0.015180,-0.064981
2025-08-05T19:50:08.735626322Z,-0.277727,-0.429759,9.484630,-0.019707,-0.012517,-0.110787
2025-08-05T19:50:08.755276183Z,0.090980,-0.166397,9.708488,0.016378,-0.014647,-0.049002
2025-08-05T19:50:08.775150526Z,0.129287,-0.238223,9.665392,0.014647,-0.017311,-0.079895
2025-08-05T19:50:08.795039140Z,0.142455,-0.259771,9.775525,0.003196,-0.021039,-0.124636
2025-08-05T19:50:08.834830534Z,-0.051475,-0.137667,9.866506,-0.000799,-0.001198,-0.059655
2025-08-05T19:50:08.854824982Z,0.107739,-0.189142,9.497798,-0.020773,-0.008123,-0.056459
2025-08-05T19:50:08.874542188Z,-0.159214,-0.123301,9.636662,-0.001332,-0.017710,-0.116114
2025-08-05T19:50:08.894366270Z,-0.237026,-0.250194,9.789890,-0.005992,-0.008522,-0.070307
2025-08-05T19:50:08.914292488Z,-0.122104,-0.298078,9.976639,-0.014248,-0.000399,-0.094808
2025-08-05T19:50:08.934138237Z,0.093374,-0.213084,9.986216,-0.013982,-0.004527,-0.026632
2025-08-05T19:50:08.954036851Z,0.129287,-0.260968,9.670180,0.016112,-0.010519,-0.059655
2025-08-05T19:50:08.993744546Z,0.059855,-0.424971,9.976639,0.011452,-0.020240,-0.096939
2025-08-05T19:50:09.013657118Z,0.111330,-0.375890,9.550470,0.002929,-0.017577,-0.128897
2025-08-05T19:50:09.033487815Z,-0.137667,-0.308852,9.780313,0.011585,-0.005992,-0.121440
2025-08-05T19:50:09.053351949Z,0.393846,-0.319626,9.770737,0.024901,-0.006525,-0.145941
2025-08-05T19:50:09.073232907Z,0.164003,-0.344765,9.751583,0.003462,0.001864,-0.175768
2025-08-05T19:50:09.093103499Z,0.126893,-0.259771,9.861717,0.012783,-0.016778,-0.199204
2025-08-05T19:50:09.152703923Z,0.143652,-0.357933,9.449914,-0.003995,-0.011585,-0.235423
2025-08-05T19:50:09.172592589Z,-0.134075,-0.162806,9.703699,-0.009454,0.000266,-0.234358
2025-08-05T19:50:09.192460734Z,-0.086191,-0.199916,9.598354,0.012117,-0.007590,-0.187486
2025-08-05T19:50:09.212313201Z,-0.265756,-0.144849,9.651027,0.003595,-0.009188,-0.136354
2025-08-05T19:50:09.232222336Z,-0.160412,-0.177171,9.641450,0.012384,-0.006924,-0.133158
2025-08-05T19:50:09.252066158Z,-0.131681,-0.171185,9.684546,-0.003196,-0.008788,-0.141680
2025-08-05T19:50:09.311729863Z,-0.077812,-0.034716,9.947908,-0.000799,-0.006125,-0.142745
2025-08-05T19:50:09.331566810Z,-0.241814,-0.214281,9.588778,-0.011984,-0.005593,-0.096939
2025-08-05T19:50:09.351424746Z,0.068235,-0.126893,9.679757,-0.010386,-0.001065,-0.125701
2025-08-05T19:50:09.371508362Z,0.037110,-0.238223,9.583989,0.001198,-0.012384,-0.123571
2025-08-05T19:50:09.391166192Z,-0.184354,-0.172383,9.880871,-0.000000,-0.010653,-0.137419
2025-08-05T19:50:09.411048451Z,-0.248997,-0.197522,9.818622,-0.002530,-0.001465,-0.107592
2025-08-05T19:50:09.431156495Z,-0.162806,-0.136469,9.761160,-0.009987,0.000399,-0.137419
2025-08-05T19:50:09.450762866Z,0.029928,-0.177171,9.497798,-0.016645,-0.010919,-0.104396
2025-08-05T19:50:09.470639552Z,0.015562,-0.122104,9.622296,-0.019974,-0.015979,-0.086286
2025-08-05T19:50:09.490506030Z,-0.270545,-0.154426,9.698911,-0.002264,-0.010653,-0.084156
2025-08-05T19:50:09.510423915Z,-0.254982,-0.099359,9.765948,0.008788,-0.009188,-0.056459
2025-08-05T19:50:09.530263935Z,0.013168,-0.146046,9.655815,0.002929,-0.014115,-0.040480
2025-08-05T19:50:09.550146142Z,-0.118513,-0.167594,9.545682,0.010519,-0.021971,-0.019175
2025-08-05T19:50:09.570092621Z,-0.162806,-0.144849,9.871294,0.011318,-0.010653,-0.025566
2025-08-05T19:50:09.629838932Z,0.020351,-0.025139,9.967062,-0.006258,-0.012384,-0.007457
2025-08-05T19:50:09.649636191Z,0.089783,-0.143652,9.785102,-0.020506,-0.004794,-0.002131
2025-08-05T19:50:09.669358188Z,-0.086191,-0.203507,9.890448,-0.010386,-0.007191,-0.010653
2025-08-05T19:50:09.689218312Z,-0.008380,-0.113725,9.689334,-0.020506,-0.014781,-0.018109
2025-08-05T19:50:09.709124530Z,-0.002394,-0.258574,9.809045,-0.017044,-0.007590,-0.019175
2025-08-05T19:50:09.768713026Z,0.005986,-0.047884,9.742006,-0.014381,-0.006924,-0.005326
2025-08-05T19:50:09.788568411Z,-0.105345,-0.067038,9.722853,-0.000666,-0.000266,0.026632
2025-08-05T19:50:09.808470879Z,-0.062249,-0.237026,9.765948,-0.005859,-0.010786,0.029827
2025-08-05T19:50:09.828330325Z,0.161609,-0.201113,9.449914,0.007590,-0.015313,0.026632
2025-08-05T19:50:09.848195345Z,0.117316,-0.201113,9.722853,0.000799,-0.018509,0.030893
2025-08-05T19:50:09.868061198Z,-0.070629,-0.272939,9.761160,0.013848,-0.004394,-0.009587
2025-08-05T19:50:09.927891937Z,0.025139,-0.183156,9.588778,0.003862,-0.000799,0.007457
2025-08-05T19:50:09.947556850Z,-0.064643,-0.312443,9.809045,-0.007856,0.000133,-0.004261
2025-08-05T19:50:09.967419891Z,0.092177,-0.389058,9.689334,-0.000932,-0.003462,0.003196
2025-08-05T19:50:09.987312515Z,-0.016759,-0.345962,9.698911,-0.002663,-0.006791,-0.003196
2025-08-05T19:50:10.007386912Z,-0.046687,-0.196325,9.603143,0.003995,-0.007723,-0.013848
2025-08-05T19:50:10.027048909Z,-0.001197,-0.158017,9.761160,0.005859,-0.007723,-0.022371
2025-08-05T19:50:10.047005544Z,-0.095768,-0.270545,9.641450,0.004927,-0.009854,0.018109
2025-08-05T19:50:10.066773115Z,-0.059855,-0.204704,9.823410,-0.013449,-0.008123,0.027697
2025-08-05T19:50:10.086651468Z,0.125696,-0.033519,9.914390,0.023036,-0.000266,0.033023
2025-08-05T19:50:10.106532269Z,-0.092177,-0.294487,9.765948,0.006791,-0.002796,0.010653
2025-08-05T19:50:10.126403487Z,0.089783,-0.216675,9.516952,-0.003862,-0.009854,0.025566
2025-08-05T19:50:10.146291684Z,0.111330,-0.270545,9.598354,0.047404,-0.005593,0.018109
2025-08-05T19:50:10.166146547Z,0.043096,-0.223858,9.689334,-0.008389,-0.012384,0.030893
2025-08-05T19:50:10.225741763Z,-0.119710,-0.260968,9.866506,-0.003196,-0.001598,-0.011718
2025-08-05T19:50:10.245593709Z,-0.189142,-0.434548,9.598354,-0.020639,-0.004128,0.015979
2025-08-05T19:50:10.265500500Z,-0.107739,-0.422577,9.751583,-0.010919,-0.010519,0.018109
2025-08-05T19:50:10.285376458Z,-0.022745,0.076614,9.713276,0.012517,-0.007590,0.034088
2025-08-05T19:50:10.305381323Z,-0.245406,-0.323217,9.818622,-0.014647,-0.010386,0.006392
2025-08-05T19:50:10.325116133Z,-0.168791,-0.478840,9.507375,-0.029162,-0.008256,0.041545
2025-08-05T19:50:10.345068706Z,-0.049081,-0.201113,9.876082,-0.017843,-0.008389,0.041545
2025-08-05T19:50:10.384733276Z,0.144849,-0.137667,9.670180,-0.031292,-0.017311,0.031958
2025-08-05T19:50:10.404632098Z,0.162806,-0.284910,9.646238,-0.031026,-0.009721,0.021305
2025-08-05T19:50:10.424465555Z,-0.395043,-0.240617,9.698911,-0.019707,-0.013582,0.020240
2025-08-05T19:50:10.444327866Z,-0.439336,-0.389058,9.564836,-0.006791,-0.008389,0.051133
2025-08-05T19:50:10.464231428Z,-0.044293,-0.323217,9.579201,-0.015579,-0.004794,0.013848
2025-08-05T19:50:10.484050145Z,0.183156,-0.071826,9.732430,-0.001731,0.000932,0.002131
2025-08-05T19:50:10.543688903Z,-0.616507,0.040701,9.856929,0.034488,-0.007590,0.011718
2025-08-05T19:50:10.563545485Z,-0.038307,0.031125,9.914390,0.009321,-0.013982,0.041545
2025-08-05T19:50:10.583432484Z,0.159214,-0.022745,9.770737,0.000666,-0.018376,0.038349
2025-08-05T19:50:10.603345160Z,-0.245406,-0.332794,9.646238,0.018908,-0.018908,0.073503
2025-08-05T19:50:10.623146325Z,-0.201113,-0.350751,9.622296,-0.021039,-0.012916,0.024501
2025-08-05T19:50:10.643041241Z,-0.207098,-0.342371,9.588778,-0.017843,-0.015579,0.024501
2025-08-05T19:50:10.682796437Z,-0.482432,-0.185551,9.612720,0.006791,-0.013183,0.052198
2025-08-05T19:50:10.702700832Z,-0.378284,0.156820,10.034100,0.061785,-0.012517,-0.002131
2025-08-05T19:50:10.722536893Z,-0.266953,-0.143652,9.813833,0.011052,-0.020373,0.063916
2025-08-05T19:50:10.742412382Z,-0.003591,-0.460884,9.809045,-0.018109,-0.011718,0.046872
2025-08-05T19:50:10.762297662Z,-0.111330,-0.234632,9.507375,-0.000666,-0.014115,0.079895
2025-08-05T19:50:10.782163828Z,-0.136469,0.434548,9.900024,0.019574,-0.007989,0.033023
2025-08-05T19:50:10.802034837Z,0.004788,0.167594,9.689334,0.007324,-0.009188,0.004261
2025-08-05T19:50:10.841761283Z,-0.005986,-0.207098,9.641450,-0.008922,-0.011718,0.071373
2025-08-05T19:50:10.861592083Z,-0.067038,-0.529119,9.804255,-0.019974,-0.008256,0.040480
2025-08-05T19:50:10.881495176Z,0.184354,-0.187945,9.627085,-0.027297,-0.008522,0.005326
2025-08-05T19:50:10.901382436Z,-0.055067,-0.068235,9.617508,0.021705,-0.009454,0.021305
2025-08-05T19:50:10.921245268Z,0.040701,-0.034716,9.722853,0.017044,-0.002663,-0.019175
2025-08-05T19:50:10.941084194Z,0.104148,0.050278,9.971850,-0.008123,0.001997,-0.004261
2025-08-05T19:50:11.020616982Z,-0.084994,0.152032,9.622296,0.037018,-0.009854,-0.010653
2025-08-05T19:50:11.040473981Z,-0.143652,-0.180762,9.717766,-0.033689,-0.003995,-0.010120
2025-08-05T19:50:11.060330459Z,-0.142455,-0.260968,9.823111,0.003329,-0.015713,0.006924
2025-08-05T19:50:11.080200687Z,0.019154,0.187945,9.598055,-0.000799,-0.007324,0.003728
2025-08-05T19:50:11.100111332Z,0.046687,-0.208296,9.650728,0.007590,-0.009454,-0.042078
2025-08-05T19:50:11.159673214Z,-0.359130,-0.755371,9.708189,-0.049002,-0.003196,-0.051665
2025-08-05T19:50:11.179569901Z,0.226252,0.233435,9.751285,0.037018,-0.015579,-0.017577
2025-08-05T19:50:11.199451223Z,0.001197,-0.070629,9.837476,-0.016378,-0.006258,-0.044208
2025-08-05T19:50:11.219305513Z,-0.128090,-0.488417,9.645940,-0.007457,-0.010519,-0.072971
2025-08-05T19:50:11.239185741Z,-0.155623,-0.136469,9.813534,-0.018642,-0.008788,-0.045274
2025-08-05T19:50:11.259021229Z,-0.276530,-0.209493,9.559748,-0.001997,-0.017710,-0.023968
2025-08-05T19:50:11.298786373Z,-0.039504,-0.150835,9.770438,-0.007856,-0.010253,-0.064448
2025-08-05T19:50:11.318629414Z,-0.118513,-0.216675,9.722554,-0.013449,-0.011452,-0.063383
2025-08-05T19:50:11.338556778Z,-0.065841,-0.114922,9.784803,-0.011851,-0.008922,-0.051665
2025-08-05T19:50:11.358377787Z,0.080206,-0.015562,9.722554,-0.001731,-0.007723,-0.060187
2025-08-05T19:50:11.378290463Z,-0.148441,-0.354342,9.660305,-0.021438,-0.002929,-0.056992
2025-08-05T19:50:11.398223869Z,0.186748,-0.094571,9.746496,0.017577,-0.009321,-0.061253
2025-08-05T19:50:11.418004357Z,0.216675,0.019154,9.645940,-0.000000,-0.007457,-0.070840
2025-08-05T19:50:11.457765594Z,0.045490,-0.235829,9.674670,0.016512,-0.008922,-0.063383
2025-08-05T19:50:11.477608895Z,-0.064643,-0.184354,9.803957,0.015313,-0.013582,-0.093211
2025-08-05T19:50:11.497532665Z,-0.137667,-0.068235,9.923667,-0.014914,-0.004927,-0.098537
2025-08-05T19:50:11.517366174Z,-0.046687,-0.061052,9.636363,-0.000399,-0.015180,-0.059122
2025-08-05T19:50:11.537250621Z,-0.106542,-0.068235,9.712977,-0.017444,-0.011318,-0.099602
2025-08-05T19:50:11.557097672Z,-0.131681,-0.053870,9.803957,-0.013049,-0.004661,-0.079362
2025-08-05T19:50:11.616713617Z,0.294487,-0.246603,9.708189,0.002530,-0.007723,-0.058057
2025-08-05T19:50:11.636572960Z,0.001197,-0.116119,9.669882,-0.001997,-0.010120,-0.039947
2025-08-05T19:50:11.656462980Z,0.140061,-0.283713,9.722554,0.013982,-0.008922,-0.072971
2025-08-05T19:50:11.676358416Z,-0.150835,-0.422577,9.612420,-0.009854,-0.003995,-0.108124
2025-08-05T19:50:11.696220103Z,0.035913,-0.221464,9.655517,-0.004394,-0.007057,-0.097472
2025-08-05T19:50:11.716066372Z,-0.040701,-0.056264,9.732131,-0.012384,-0.007856,-0.083623
2025-08-05T19:50:11.775704244Z,-0.077812,-0.288501,9.698612,-0.000266,-0.009587,-0.074036
2025-08-05T19:50:11.795584108Z,0.450110,0.094571,9.751285,0.017444,-0.010786,-0.077232
2025-08-05T19:50:11.815631213Z,0.418985,-0.088585,9.751285,0.022371,-0.017444,-0.109190
2025-08-05T19:50:11.835326335Z,0.083797,-0.062249,9.703401,0.015047,-0.009188,-0.099602
2025-08-05T19:50:11.855190053Z,0.114922,-0.112527,9.655517,0.006125,-0.000666,-0.052731
2025-08-05T19:50:11.875031583Z,0.029928,-0.381875,9.684247,0.035287,-0.007856,-0.026099
2025-08-05T19:50:11.914780112Z,-0.260968,-0.545878,9.569324,0.045407,-0.013449,-0.016512
2025-08-05T19:50:11.934678205Z,0.044293,-0.453701,9.607632,-0.051665,-0.006658,-0.013316
2025-08-05T19:50:11.954505724Z,0.013168,0.023942,9.784803,-0.015713,-0.005859,-0.014381
2025-08-05T19:50:11.974399182Z,-0.017957,-0.155623,9.760861,0.015313,-0.009987,-0.014381
2025-08-05T19:50:11.994552538Z,-0.005986,-0.283713,9.684247,-0.000932,-0.009188,-0.014381
2025-08-05T19:50:12.014122450Z,-0.013168,-0.229843,9.712977,-0.010253,-0.008256,-0.014381
2025-08-05T19:50:12.034016064Z,0.009577,-0.159214,9.722554,-0.002397,-0.007856,-0.013316
2025-08-05T19:50:12.073764333Z,0.000000,-0.199916,9.703401,-0.002929,-0.008123,-0.014381
2025-08-05T19:50:12.093622686Z,-0.013168,-0.209493,9.693824,-0.003329,-0.007856,-0.014381
2025-08-05T19:50:12.113516977Z,0.005986,-0.196325,9.732131,-0.004128,-0.008922,-0.014381
2025-08-05T19:50:12.133364028Z,-0.002394,-0.203507,9.712977,-0.002264,-0.007856,-0.014381
2025-08-05T19:50:12.153243683Z,-0.015562,-0.195127,9.717766,-0.001598,-0.008788,-0.014381
2025-08-05T19:50:12.173099900Z,0.011971,-0.222661,9.693824,0.000799,-0.011052,-0.014381
2025-08-05T19:50:12.232739075Z,-0.166397,-0.195127,9.727641,0.002530,-0.011718,-0.023436
2025-08-05T19:50:12.252579719Z,-0.383072,-0.178368,9.694122,-0.009188,-0.006125,-0.070307
2025-08-05T19:50:12.272496771Z,-0.195127,-0.168791,9.780313,-0.007057,-0.011718,-0.052198
2025-08-05T19:50:12.292339238Z,-0.207098,-0.096965,9.698911,0.009321,-0.009188,-0.051133
2025-08-05T19:50:12.312203372Z,-0.286107,-0.148441,9.694122,-0.017444,-0.007324,-0.052198
2025-08-05T19:50:12.332068028Z,-0.460884,-0.086191,9.703699,-0.028229,-0.003595,-0.054328
2025-08-05T19:50:12.391905642Z,-0.311246,-0.164003,9.598354,-0.006258,0.002929,0.064981
2025-08-05T19:50:12.411773109Z,-0.106542,-0.099359,9.703699,-0.014647,-0.011585,0.096939
2025-08-05T19:50:12.431618337Z,-0.161609,-0.039504,9.832987,-0.020639,-0.008922,0.083091
2025-08-05T19:50:12.451560493Z,-0.126893,0.081403,9.722853,0.017177,-0.013316,0.117179
2025-08-05T19:50:12.471179625Z,-0.184354,-0.131681,9.555259,-0.012916,-0.006125,0.106526
2025-08-05T19:50:12.491115270Z,-0.155623,-0.104148,9.856929,-0.002663,-0.013715,0.147006
2025-08-05T19:50:12.530790778Z,-0.193930,-0.331597,9.583989,-0.037284,-0.005992,0.131027
2025-08-05T19:50:12.550654652Z,-0.202310,-0.150835,9.828198,-0.007590,-0.010386,0.125701
2025-08-05T19:50:12.570558318Z,-0.124498,-0.299275,9.641450,-0.000666,-0.007324,0.107592
2025-08-05T19:50:12.590405160Z,-0.211887,-0.262165,9.636662,-0.006258,-0.001598,0.121440
2025-08-05T19:50:12.610264294Z,-0.142455,-0.213084,9.823410,-0.017710,-0.014914,0.112918
2025-08-05T19:50:12.630141814Z,0.197522,-0.106542,9.904813,0.018376,-0.004927,0.088417
2025-08-05T19:50:12.650007719Z,-0.074220,-0.077812,9.684546,0.027564,-0.008389,0.138484
2025-08-05T19:50:12.689785259Z,0.020351,-0.252588,9.402030,-0.012517,-0.003329,0.131027
2025-08-05T19:50:12.709629497Z,-0.213084,-0.154426,9.679757,0.018775,-0.000932,0.108657
2025-08-05T19:50:12.729492694Z,-0.168791,-0.095768,9.665392,0.018908,-0.008522,0.141680
2025-08-05T19:50:12.749361360Z,-0.100556,-0.005986,9.732430,0.019707,-0.010653,0.132093
2025-08-05T19:50:12.769260286Z,-0.104148,-0.375890,9.828198,-0.020107,-0.009454,0.117179
2025-08-05T19:50:12.789139525Z,0.165200,-0.164003,9.531317,-0.003595,-0.008256,0.115048
2025-08-05T19:50:12.829063421Z,-0.098162,-0.120907,9.516952,0.013848,-0.011585,0.113983
2025-08-05T19:50:12.848883544Z,-0.141258,-0.250194,9.607632,-0.031958,-0.001864,0.136886
2025-08-05T19:50:12.868609343Z,-0.147243,-0.061052,9.832687,0.001598,-0.005593,0.131560
2025-08-05T19:50:12.888481655Z,0.080206,-0.213084,9.708189,-0.022903,-0.002796,0.130495
2025-08-05T19:50:12.908350841Z,0.083797,-0.199916,9.559748,-0.013582,-0.003063,0.127299
2025-08-05T19:50:12.928196590Z,-0.013168,-0.326809,9.765650,-0.006525,-0.007191,0.076166
2025-08-05T19:50:12.948085985Z,0.138864,0.161609,9.631575,0.041146,-0.006525,0.115581
2025-08-05T19:50:13.007710784Z,0.172383,-0.033519,9.775227,0.009055,-0.013183,0.115581
2025-08-05T19:50:13.027533460Z,-0.227449,-0.147243,9.416096,-0.002796,-0.007856,0.110255
2025-08-05T19:50:13.047458949Z,-0.258574,-0.118513,9.870995,0.004794,-0.013715,0.126234
2025-08-05T19:50:13.067275895Z,0.110133,-0.257377,9.784803,-0.021172,-0.012517,0.127299
2025-08-05T19:50:13.087206124Z,-0.240617,-0.215478,9.837476,-0.011851,-0.008123,0.117712
2025-08-05T19:50:13.107052758Z,-0.221464,-0.134075,9.803957,-0.008256,-0.007856,0.121973
2025-08-05T19:50:13.146796495Z,-0.204704,-0.090980,9.742006,-0.006392,-0.001598,0.156594
2025-08-05T19:50:13.166687088Z,-0.254982,0.010774,9.842564,0.002397,-0.006791,0.167246
2025-08-05T19:50:13.186585598Z,-0.263362,-0.137667,9.708488,-0.000666,-0.015979,0.176834
2025-08-05T19:50:13.206395253Z,-0.196325,0.105345,9.574412,0.026765,-0.012916,0.206661
2025-08-05T19:50:13.226263033Z,-0.238223,-0.120907,9.765948,-0.006791,0.000266,0.222640
2025-08-05T19:50:13.246169043Z,0.037110,-0.038307,9.770737,0.007590,0.000799,0.222640
2025-08-05T19:50:13.266047031Z,0.064643,-0.142455,9.722853,-0.012783,0.000533,0.215183
2025-08-05T19:50:13.305785092Z,0.130484,-0.134075,9.732430,-0.006658,-0.011052,0.226901
2025-08-05T19:50:13.325613705Z,0.128090,0.166397,9.646238,0.018509,-0.018509,0.238619
2025-08-05T19:50:13.345508152Z,0.044293,-0.158017,9.560047,0.020107,-0.010386,0.217314
2025-08-05T19:50:13.365347546Z,-0.062249,-0.306458,9.651027,-0.020373,-0.008655,0.249272
2025-08-05T19:50:13.385249858Z,-0.266953,-0.494403,9.751583,-0.032091,-0.006125,0.258859
2025-08-05T19:50:13.405104878Z,0.304064,-0.117316,9.272743,0.018376,0.000666,0.248206
2025-08-05T19:50:13.464683010Z,0.323217,-0.298078,9.689334,-0.012117,-0.004261,0.194943
2025-08-05T19:50:13.484801365Z,0.239420,-0.378284,9.598354,-0.021305,-0.001598,0.192813
2025-08-05T19:50:13.504469612Z,-0.026336,-0.532710,9.301474,-0.023702,-0.000133,0.175768
2025-08-05T19:50:13.524349111Z,-0.193930,-0.699107,9.603143,-0.028496,-0.000799,0.217314
2025-08-05T19:50:13.544435540Z,-0.313640,-0.675165,9.473856,-0.008922,-0.003728,0.119310
2025-08-05T19:50:13.564079515Z,-0.523133,-0.386664,9.598354,-0.007856,-0.009721,0.176834
2025-08-05T19:50:13.623879889Z,-0.108936,-0.005986,9.981427,0.028629,-0.015846,0.153398
2025-08-05T19:50:13.643556105Z,0.248997,-0.247800,9.684546,-0.011718,-0.027830,0.219444
2025-08-05T19:50:13.663427270Z,0.281319,-0.306458,9.469068,0.005326,-0.017044,0.091613
2025-08-05T19:50:13.683325520Z,-0.198719,-0.330400,9.809045,-0.023968,-0.013449,0.135288
2025-08-05T19:50:13.703186268Z,-0.076614,-0.196325,9.794679,-0.003462,-0.005726,0.129962
2025-08-05T19:50:13.723060715Z,-0.075417,-0.205901,9.545682,0.010386,-0.006258,0.132093
2025-08-05T19:50:13.782683796Z,0.664391,0.191536,9.603143,0.044608,-0.008123,0.152333
2025-08-05T19:50:13.802759964Z,0.022745,-0.333991,10.081984,0.001332,-0.006258,0.091613
2025-08-05T19:50:13.822573420Z,0.290895,-0.181959,9.780313,0.028096,-0.000133,0.104396
2025-08-05T19:50:13.842271667Z,0.051475,-0.282516,9.488221,0.008522,-0.004927,0.124636
2025-08-05T19:50:13.862183198Z,0.416591,-0.648829,9.660604,-0.054195,-0.004527,0.138484
2025-08-05T19:50:13.882054364Z,-0.064643,-0.119710,9.267955,-0.006392,0.012916,0.136354
2025-08-05T19:50:13.921761486Z,0.472855,-0.274136,9.852140,0.020773,-0.007989,0.101200
2025-08-05T19:50:13.941620725Z,0.037110,0.010774,9.536105,0.042611,-0.011984,0.053263
2025-08-05T19:50:13.961481005Z,-0.738611,-0.084994,9.220071,0.067777,0.001864,0.138484
2025-08-05T19:50:13.981378941Z,0.147243,-0.244209,9.531317,0.027297,-0.013848,0.038349
2025-08-05T19:50:14.001239482Z,-0.019154,-0.629675,9.761160,-0.052464,-0.009055,0.047937
2025-08-05T19:50:14.021111377Z,-0.096965,-0.237026,9.464279,-0.004261,-0.007856,0.038349
2025-08-05T19:50:14.041003793Z,-0.384269,-0.456095,9.655815,-0.016778,-0.005726,0.050067
2025-08-05T19:50:14.080752791Z,0.059855,0.155623,9.220071,0.045407,-0.002131,0.088417
2025-08-05T19:50:14.100601612Z,0.140061,-0.560243,9.430760,-0.036086,-0.006525,0.078829
2025-08-05T19:50:14.120456059Z,0.005986,-0.116119,9.263166,-0.007590,-0.005060,0.084156
2025-08-05T19:50:14.140341548Z,0.245406,-0.234632,9.387665,-0.007723,-0.007324,0.089482
2025-08-05T19:50:14.160223599Z,-0.098162,0.167594,9.248801,0.038749,-0.008788,0.031958
2025-08-05T19:50:14.180061639Z,0.136469,-0.700304,9.837775,-0.032357,-0.009721,0.075634
2025-08-05T19:50:14.239707949Z,-0.029928,-0.323217,9.679757,-0.004394,-0.002663,0.069242
2025-08-05T19:50:14.259571198Z,0.108936,-0.571017,9.593566,-0.040347,-0.007191,0.062851
2025-08-05T19:50:14.279485176Z,-0.480037,-0.356736,9.560047,0.034355,-0.020107,-0.017044
2025-08-05T19:50:14.299501187Z,-0.393846,-0.367510,10.014946,0.053796,-0.023436,0.047937
2025-08-05T19:50:14.319376363Z,0.087388,-0.226252,9.756371,-0.009987,-0.007723,0.054328
2025-08-05T19:50:14.339235706Z,0.415394,-0.399832,10.029311,-0.011984,-0.007856,0.063916
2025-08-05T19:50:14.359148070Z,-0.052672,-0.329203,9.363723,0.014647,-0.000666,0.014914
2025-08-05T19:50:14.378805691Z,-0.171185,-0.460884,9.679757,-0.010786,-0.000799,0.074568
2025-08-05T19:50:14.398639200Z,-0.114922,-0.260968,9.765948,-0.005060,-0.008389,0.060720
2025-08-05T19:50:14.418515210Z,-0.147243,-0.374693,9.545682,-0.008256,-0.004261,0.044741
2025-08-05T19:50:14.438384344Z,-0.110133,-0.064643,9.646238,0.003063,-0.012251,0.063916
2025-08-05T19:50:14.458246135Z,0.086191,-0.056264,9.641450,0.022504,-0.003862,0.071373
2025-08-05T19:50:14.478174436Z,-0.262165,0.050278,9.488221,0.077498,-0.016778,0.068177
2025-08-05T19:50:14.498038571Z,0.014365,-0.480037,9.761160,-0.006791,-0.008788,0.077764
2025-08-05T19:50:14.557624724Z,-0.021548,-0.427365,9.981427,-0.017177,-0.014514,0.076699
2025-08-05T19:50:14.597372315Z,-0.001197,-0.460884,9.832987,-0.004927,-0.011718,0.083091
2025-08-05T19:50:14.617255773Z,0.065841,-0.409408,9.698911,-0.003063,-0.011585,0.085221
2025-08-05T19:50:14.637144959Z,-0.001197,-0.233435,9.775525,0.004927,-0.011052,0.063916
2025-08-05T19:50:14.696729393Z,-0.019154,-0.420182,9.761160,-0.004261,-0.012117,0.057524
2025-08-05T19:50:14.716608945Z,0.099359,-0.318429,9.574412,-0.008389,-0.007057,0.072438
2025-08-05T19:50:14.736468964Z,0.134075,-0.362722,9.531317,-0.017444,-0.007590,0.060720
2025-08-05T19:50:14.756343359Z,0.106542,-0.337582,9.689334,-0.024901,-0.005593,0.040480
2025-08-05T19:50:14.776254577Z,-0.284910,-0.071826,9.837775,0.028229,-0.007057,0.075634
2025-08-05T19:50:14.796106211Z,0.041899,-0.278924,9.593566,0.024368,-0.013183,0.098004
2025-08-05T19:50:14.855694239Z,-0.122104,-0.172383,9.636662,0.014514,-0.015446,0.087352
2025-08-05T19:50:14.875814366Z,0.075417,-0.338780,9.627085,-0.018908,-0.004927,0.057524
2025-08-05T19:50:14.895462508Z,-0.076614,-0.175974,9.761160,0.014381,-0.009987,0.078829
2025-08-05T19:50:14.915526072Z,-0.028730,-0.320823,9.612720,0.000666,-0.010653,0.059655
2025-08-05T19:50:14.935389633Z,0.017957,-0.017957,9.660604,0.013183,-0.006924,0.076699
2025-08-05T19:50:14.955035796Z,-0.067038,-0.208296,9.713276,0.000533,-0.004794,0.083091
2025-08-05T19:50:15.014826847Z,-0.099359,-0.221464,9.574412,0.000266,-0.007989,0.074568
2025-08-05T19:50:15.034732649Z,0.114922,-0.184354,9.627085,-0.007057,-0.009721,0.069242
2025-08-05T19:50:15.054405531Z,-0.322020,-0.225055,9.856929,0.008655,-0.011585,0.085221
2025-08-05T19:50:15.074303624Z,-0.088585,-0.420182,9.880871,0.000533,-0.012251,0.072438
2025-08-05T19:50:15.094148696Z,-0.021548,-0.338780,9.732430,0.011185,-0.011318,0.066046
2025-08-05T19:50:15.114023559Z,0.122104,-0.414197,9.583989,0.029561,-0.004927,0.063916
2025-08-05T19:50:15.153742140Z,-0.108936,-0.300472,9.722853,0.006125,-0.009854,0.017044
2025-08-05T19:50:15.173684504Z,-0.058658,-0.253785,9.698911,0.004527,-0.007723,-0.011718
2025-08-05T19:50:15.193504524Z,-0.067038,-0.189142,9.718064,0.001065,-0.008256,-0.012783
2025-08-05T19:50:15.213601213Z,-0.082600,-0.233435,9.689334,0.002530,-0.008788,-0.014914
2025-08-05T19:50:15.233457482Z,-0.076614,-0.238223,9.698911,0.000399,-0.010653,-0.015979
2025-08-05T19:50:15.253338596Z,-0.037110,-0.168791,9.708488,0.000399,-0.010253,-0.018109
2025-08-05T19:50:15.273255543Z,-0.045490,-0.199916,9.708488,0.003196,-0.008256,-0.014914
2025-08-05T19:50:15.293080354Z,-0.050278,-0.190339,9.703699,0.003063,-0.007989,-0.013848
2025-08-05T19:50:15.312846623Z,-0.056264,-0.214281,9.694122,-0.000799,-0.007723,-0.013848
2025-08-05T19:50:15.332590548Z,-0.063446,-0.215478,9.713276,0.005992,-0.009987,-0.015979
2025-08-05T19:50:15.352469422Z,-0.061052,-0.201113,9.698911,0.001598,-0.009321,-0.015979
2025-08-05T19:50:15.372345379Z,-0.075417,-0.197522,9.727641,0.001465,-0.008389,-0.015979
2025-08-05T19:50:15.392201336Z,-0.071826,-0.219069,9.703699,-0.001598,-0.008389,-0.013848
2025-08-05T19:50:15.412084741Z,-0.055067,-0.225055,9.694122,-0.000666,-0.009987,-0.014914
2025-08-05T19:50:15.471712093Z,-0.068235,-0.193930,9.703699,-0.003595,-0.008256,-0.013848
2025-08-05T19:50:15.491588362Z,-0.083797,-0.204704,9.708488,-0.000399,-0.007723,-0.013848
2025-08-05T19:50:15.511461872Z,-0.062249,-0.205901,9.698911,-0.004261,-0.005992,-0.014914
2025-08-05T19:50:15.531317256Z,-0.052672,-0.241814,9.703699,0.001598,-0.005726,-0.011718
2025-08-05T19:50:15.551190922Z,-0.065841,-0.214281,9.703699,-0.002929,-0.006924,-0.012783
2025-08-05T19:50:15.571115630Z,-0.065841,-0.213084,9.703699,0.001065,-0.006258,-0.010653
2025-08-05T19:50:15.630664490Z,-0.062249,-0.177171,9.713276,0.010253,-0.009321,-0.011718
2025-08-05T19:50:15.650561958Z,-0.044293,-0.192733,9.708488,0.006658,-0.009188,-0.011718
2025-08-05T19:50:15.670452135Z,-0.064643,-0.193930,9.727641,0.001997,-0.007057,-0.012783
2025-08-05T19:50:15.690476479Z,0.003591,-0.231040,9.737218,-0.004794,-0.005593,-0.006392
2025-08-05T19:50:15.710145351Z,0.160412,-0.272939,9.684546,-0.006791,-0.005859,0.021305
2025-08-05T19:50:15.730049694Z,0.155623,-0.192733,9.756371,-0.016512,-0.004661,0.038349
2025-08-05T19:50:15.789620430Z,0.008380,-0.160412,9.684546,-0.020240,-0.005459,0.038349
2025-08-05T19:50:15.809485606Z,0.039504,-0.123301,9.651027,-0.027297,-0.009055,0.066046
2025-08-05T19:50:15.829407397Z,0.141258,-0.089783,9.641450,0.000133,-0.013183,0.059655
2025-08-05T19:50:15.849260802Z,0.341174,-0.001197,9.464279,-0.076699,-0.010653,-0.013848
2025-08-05T19:50:15.869165666Z,0.198719,-0.169988,9.516952,-0.023702,-0.013982,-0.015979
2025-08-05T19:50:15.889019748Z,-0.152032,-0.446519,9.761160,-0.035553,0.003196,-0.040480
2025-08-05T19:50:15.928736819Z,0.128090,-0.439336,9.995792,0.004527,-0.003196,-0.003196
2025-08-05T19:50:15.948633714Z,0.587777,-0.110133,9.301474,0.044608,-0.014914,-0.011718
2025-08-05T19:50:15.968481702Z,0.392649,-0.089783,9.655815,0.013982,-0.017444,-0.057524
2025-08-05T19:50:15.988362191Z,0.257377,-0.219069,9.631873,-0.003063,-0.012650,-0.085221
2025-08-05T19:50:16.008249242Z,0.591368,-0.134075,9.651027,0.014781,-0.014381,-0.078829
2025-08-05T19:50:16.028107855Z,0.325611,-0.160412,10.168175,0.012517,-0.006258,-0.082025
2025-08-05T19:50:16.048006209Z,0.385466,-0.196325,9.569624,0.028096,-0.008389,-0.129962
2025-08-05T19:50:16.087695883Z,0.287304,-0.292093,9.813833,0.012517,-0.003728,-0.211987
