timestamp,accel_x,accel_y,accel_z,gyro_x,gyro_y,gyro_z
2025-08-05T19:48:40.926798495Z,-0.014365,-0.148441,9.736919,-0.002796,-0.008922,-0.014381
2025-08-05T19:48:40.946563283Z,-0.025139,-0.155623,9.756073,-0.002264,-0.008123,-0.014381
2025-08-05T19:48:40.966419947Z,-0.064643,-0.184354,9.746496,-0.003862,-0.007723,-0.013316
2025-08-05T19:48:40.986300570Z,-0.086191,-0.227449,9.641151,-0.000000,-0.005726,-0.014381
2025-08-05T19:48:41.006171296Z,-0.092177,-0.253785,9.732131,0.000533,-0.009321,-0.015446
2025-08-05T19:48:41.026050721Z,-0.043096,-0.202310,9.703401,-0.000533,-0.009587,-0.014381
2025-08-05T19:48:41.065772330Z,-0.052672,-0.229843,9.636363,0.000133,-0.009188,-0.014381
2025-08-05T19:48:41.085684828Z,-0.046687,-0.258574,9.703401,-0.000266,-0.008522,-0.015446
2025-08-05T19:48:41.105505711Z,-0.038307,-0.245406,9.641151,-0.003063,-0.008655,-0.014381
2025-08-05T19:48:41.125409771Z,-0.058658,-0.257377,9.689035,-0.002397,-0.009587,-0.015446
2025-08-05T19:48:41.145246852Z,-0.059855,-0.240617,9.732131,-0.001997,-0.009321,-0.015446
2025-08-05T19:48:41.165109505Z,-0.056264,-0.204704,9.717766,-0.003329,-0.008655,-0.014381
2025-08-05T19:48:41.224721060Z,-0.038307,-0.213084,9.733028,-0.004261,-0.007191,-0.013848
2025-08-05T19:48:41.244634339Z,-0.067038,-0.234632,9.718663,-0.003862,-0.007856,-0.013848
2025-08-05T19:48:41.264528660Z,-0.084994,-0.231040,9.709086,-0.001198,-0.008389,-0.014914
2025-08-05T19:48:41.284431106Z,-0.039504,-0.208296,9.718663,-0.003063,-0.008788,-0.013848
2025-08-05T19:48:41.304225009Z,-0.039504,-0.204704,9.704298,-0.002796,-0.007723,-0.014914
2025-08-05T19:48:41.324127871Z,-0.038307,-0.225055,9.694721,-0.001332,-0.008389,-0.014914
2025-08-05T19:48:41.383901875Z,-0.067038,-0.214281,9.699510,-0.002796,-0.008256,-0.013848
2025-08-05T19:48:41.403579111Z,-0.047884,-0.216675,9.723452,-0.001864,-0.009454,-0.013848
2025-08-05T19:48:41.423418640Z,-0.045490,-0.192733,9.728240,-0.002397,-0.008522,-0.014914
2025-08-05T19:48:41.443309991Z,-0.049081,-0.207098,9.718663,-0.003995,-0.008123,-0.013848
2025-08-05T19:48:41.463140614Z,-0.049081,-0.223858,9.718663,-0.002796,-0.008123,-0.014914
2025-08-05T19:48:41.483090508Z,-0.056264,-0.223858,9.704298,-0.003063,-0.007989,-0.013848
2025-08-05T19:48:41.522805294Z,-0.034716,-0.228646,9.694721,-0.001864,-0.008123,-0.013848
2025-08-05T19:48:41.542621697Z,-0.061052,-0.221464,9.709086,-0.000533,-0.008389,-0.014914
2025-08-05T19:48:41.562561227Z,-0.035913,-0.207098,9.704298,-0.002929,-0.008922,-0.013848
2025-08-05T19:48:41.582410026Z,-0.032322,-0.204704,9.694721,-0.002131,-0.008256,-0.013848
2025-08-05T19:48:41.602297784Z,-0.071826,-0.210690,9.704298,-0.002663,-0.008522,-0.014914
2025-08-05T19:48:41.622162365Z,-0.065841,-0.222661,9.713875,-0.003063,-0.008655,-0.013848
2025-08-05T19:48:41.642021321Z,-0.061052,-0.223858,9.713875,-0.003063,-0.008922,-0.013848
2025-08-05T19:48:41.681778243Z,-0.026336,-0.202310,9.709086,-0.003995,-0.008123,-0.013848
2025-08-05T19:48:41.701624386Z,-0.056264,-0.222661,9.704298,-0.001465,-0.008522,-0.013848
2025-08-05T19:48:41.721484904Z,-0.079009,-0.233435,9.709086,-0.002397,-0.007989,-0.013848
2025-08-05T19:48:41.741359954Z,-0.068235,-0.209493,9.709086,-0.001198,-0.007989,-0.014914
2025-08-05T19:48:41.761218024Z,-0.040701,-0.204704,9.718663,-0.001997,-0.008655,-0.013848
2025-08-05T19:48:41.781125105Z,-0.041899,-0.214281,9.704298,-0.002397,-0.007590,-0.013848
2025-08-05T19:48:41.840707181Z,-0.053870,-0.199916,9.704298,-0.001465,-0.008256,-0.013848
2025-08-05T19:48:41.860786763Z,-0.041899,-0.210690,9.704298,-0.002131,-0.007057,-0.013848
2025-08-05T19:48:41.880451395Z,-0.053870,-0.208296,9.723452,-0.001731,-0.008256,-0.013848
2025-08-05T19:48:41.900309361Z,-0.049081,-0.214281,9.699510,-0.001065,-0.007723,-0.013848
2025-08-05T19:48:41.920191025Z,-0.061052,-0.201113,9.704298,-0.001065,-0.008256,-0.013848
2025-08-05T19:48:41.940052637Z,-0.051475,-0.219069,9.704298,-0.001332,-0.008256,-0.013848
2025-08-05T19:48:41.979822112Z,-0.055067,-0.197522,9.713875,-0.002397,-0.007723,-0.012783
2025-08-05T19:48:41.999653098Z,-0.043096,-0.222661,9.713875,-0.001465,-0.007723,-0.013848
2025-08-05T19:48:42.019582471Z,-0.047884,-0.225055,9.709086,-0.002264,-0.007057,-0.013848
2025-08-05T19:48:42.039424500Z,-0.053870,-0.231040,9.713875,-0.001731,-0.009321,-0.013848
2025-08-05T19:48:42.059328456Z,-0.062249,-0.219069,9.709086,-0.002397,-0.006658,-0.013848
2025-08-05T19:48:42.079186005Z,-0.062249,-0.208296,9.693225,-0.001598,-0.008788,-0.014381
2025-08-05T19:48:42.099035013Z,-0.061052,-0.202310,9.707590,-0.001598,-0.007723,-0.014381
2025-08-05T19:48:42.138754643Z,-0.044293,-0.207098,9.717167,-0.002530,-0.007856,-0.014381
2025-08-05T19:48:42.158657922Z,-0.049081,-0.229843,9.702802,-0.002796,-0.008522,-0.015446
2025-08-05T19:48:42.178526253Z,-0.065841,-0.243011,9.707590,-0.002397,-0.008256,-0.014381
2025-08-05T19:48:42.198386042Z,-0.049081,-0.213084,9.707590,-0.001332,-0.008389,-0.015446
2025-08-05T19:48:42.218243540Z,-0.044293,-0.197522,9.712379,-0.001065,-0.007723,-0.014381
2025-08-05T19:48:42.238160256Z,-0.055067,-0.198719,9.717167,-0.003462,-0.007590,-0.014381
2025-08-05T19:48:42.297740040Z,-0.055067,-0.225055,9.707590,-0.003063,-0.009055,-0.014381
2025-08-05T19:48:42.317599777Z,-0.051475,-0.226252,9.707590,-0.002397,-0.008522,-0.015446
2025-08-05T19:48:42.337460244Z,-0.051475,-0.220267,9.698013,-0.002131,-0.007989,-0.014381
2025-08-05T19:48:42.357322533Z,-0.049081,-0.205901,9.707590,-0.002929,-0.009055,-0.014381
2025-08-05T19:48:42.377202478Z,-0.044293,-0.215478,9.707590,-0.002929,-0.008256,-0.014381
2025-08-05T19:48:42.397084976Z,-0.050278,-0.226252,9.698013,-0.002530,-0.008522,-0.014381
2025-08-05T19:48:42.456694916Z,-0.039504,-0.227449,9.702802,-0.002530,-0.007723,-0.014381
2025-08-05T19:48:42.476571476Z,-0.068235,-0.204704,9.707590,-0.001864,-0.008389,-0.014381
2025-08-05T19:48:42.496464651Z,-0.056264,-0.214281,9.707590,-0.002264,-0.007590,-0.014381
2025-08-05T19:48:42.516336159Z,-0.064643,-0.211887,9.712379,-0.003862,-0.008522,-0.015446
2025-08-05T19:48:42.536169854Z,-0.064643,-0.241814,9.702802,-0.003196,-0.008389,-0.015446
2025-08-05T19:48:42.556049122Z,-0.037110,-0.219069,9.707590,-0.002397,-0.007856,-0.014381
2025-08-05T19:48:42.595810680Z,-0.034716,-0.192733,9.717167,-0.002530,-0.008522,-0.014381
2025-08-05T19:48:42.615660105Z,-0.041899,-0.205901,9.702802,-0.002929,-0.007856,-0.014381
2025-08-05T19:48:42.635539842Z,-0.047884,-0.207098,9.712379,-0.002796,-0.009587,-0.015446
2025-08-05T19:48:42.655389891Z,-0.053870,-0.211887,9.712379,-0.002264,-0.008389,-0.014381
2025-08-05T19:48:42.675306608Z,-0.050278,-0.220267,9.698013,-0.002397,-0.007989,-0.015446
2025-08-05T19:48:42.695144782Z,-0.051475,-0.213084,9.717167,-0.002530,-0.008123,-0.015446
2025-08-05T19:48:42.715008998Z,-0.050278,-0.221464,9.702802,-0.003063,-0.009188,-0.014381
2025-08-05T19:48:42.754744358Z,-0.050278,-0.228646,9.698013,-0.002264,-0.008256,-0.014381
2025-08-05T19:48:42.774611178Z,-0.044293,-0.226252,9.707590,-0.002929,-0.007590,-0.014381
2025-08-05T19:48:42.794496436Z,-0.050278,-0.229843,9.702802,-0.001598,-0.007989,-0.014381
2025-08-05T19:48:42.814357684Z,-0.058658,-0.209493,9.707590,-0.001065,-0.007590,-0.013316
2025-08-05T19:48:42.834418776Z,-0.052672,-0.217872,9.698013,-0.001731,-0.008123,-0.014381
2025-08-05T19:48:42.854102783Z,-0.045490,-0.214281,9.707590,-0.001997,-0.008922,-0.014381
2025-08-05T19:48:42.874199761Z,-0.046687,-0.229843,9.702802,-0.002530,-0.007856,-0.014381
2025-08-05T19:48:42.913710380Z,-0.051475,-0.216675,9.712379,-0.002929,-0.008788,-0.014381
2025-08-05T19:48:42.933572252Z,-0.056264,-0.222661,9.698013,-0.001332,-0.007856,-0.014381
2025-08-05T19:48:42.953466521Z,-0.057461,-0.221464,9.702802,-0.002796,-0.007856,-0.014381
2025-08-05T19:48:42.973321362Z,-0.065841,-0.231040,9.702802,-0.001731,-0.008522,-0.015446
2025-08-05T19:48:42.993198547Z,-0.043096,-0.207098,9.702802,-0.003063,-0.009321,-0.014381
2025-08-05T19:48:43.013048544Z,-0.040701,-0.211887,9.712379,-0.002663,-0.008123,-0.014381
2025-08-05T19:48:43.072771610Z,-0.065841,-0.226252,9.702802,-0.002796,-0.008256,-0.014381
2025-08-05T19:48:43.092569316Z,-0.043096,-0.227449,9.693225,-0.002530,-0.007590,-0.014381
2025-08-05T19:48:43.112417646Z,-0.053870,-0.216675,9.707590,-0.002530,-0.008123,-0.015446
2025-08-05T19:48:43.132301238Z,-0.046687,-0.207098,9.702203,-0.001065,-0.007590,-0.014781
2025-08-05T19:48:43.152147745Z,-0.061052,-0.204704,9.706991,-0.003329,-0.007856,-0.014781
2025-08-05T19:48:43.172274776Z,-0.057461,-0.208296,9.702203,-0.002530,-0.009188,-0.014781
2025-08-05T19:48:43.231654767Z,-0.050278,-0.219069,9.687838,-0.003063,-0.008788,-0.014781
2025-08-05T19:48:43.251462524Z,-0.058658,-0.220267,9.687838,-0.001332,-0.008123,-0.014781
2025-08-05T19:48:43.271389606Z,-0.055067,-0.229843,9.702203,-0.003995,-0.009587,-0.015846
2025-08-05T19:48:43.291241738Z,-0.045490,-0.223858,9.702203,-0.002264,-0.007856,-0.014781
2025-08-05T19:48:43.311133507Z,-0.047884,-0.226252,9.706991,-0.002796,-0.008256,-0.014781
2025-08-05T19:48:43.390818863Z,-0.055067,-0.210690,9.697414,-0.002796,-0.008389,-0.014781
2025-08-05T19:48:43.410455630Z,-0.038307,-0.207098,9.706991,-0.002530,-0.008522,-0.014781
2025-08-05T19:48:43.430337190Z,-0.055067,-0.216675,9.702203,-0.003063,-0.009454,-0.015846
2025-08-05T19:48:43.450204843Z,-0.047884,-0.219069,9.687838,-0.001332,-0.008256,-0.014781
2025-08-05T19:48:43.470273072Z,-0.043096,-0.219069,9.697414,-0.002131,-0.008123,-0.014781
2025-08-05T19:48:43.529682021Z,-0.053870,-0.214281,9.697414,-0.002530,-0.007723,-0.014781
2025-08-05T19:48:43.549535143Z,-0.061052,-0.211887,9.702203,-0.002397,-0.007723,-0.014781
2025-08-05T19:48:43.569416964Z,-0.055067,-0.214281,9.706991,-0.003063,-0.008922,-0.014781
2025-08-05T19:48:43.589308576Z,-0.041899,-0.213084,9.697414,-0.002796,-0.007856,-0.014781
2025-08-05T19:48:43.609604202Z,-0.055067,-0.208296,9.702203,-0.003063,-0.008389,-0.014781
2025-08-05T19:48:43.688739918Z,-0.049081,-0.207098,9.718663,-0.001065,-0.007723,-0.013848
2025-08-05T19:48:43.708527519Z,-0.047884,-0.211887,9.713875,-0.001465,-0.008123,-0.013848
2025-08-05T19:48:43.728411527Z,-0.051475,-0.210690,9.704298,-0.002264,-0.007590,-0.013848
2025-08-05T19:48:43.748308869Z,-0.061052,-0.210690,9.709086,-0.002131,-0.007723,-0.013848
2025-08-05T19:48:43.768157720Z,-0.049081,-0.220267,9.704298,-0.002796,-0.008123,-0.014914
2025-08-05T19:48:43.788033708Z,-0.061052,-0.214281,9.704298,-0.002929,-0.009188,-0.013848
2025-08-05T19:48:43.827772140Z,-0.047884,-0.227449,9.709086,-0.002397,-0.007590,-0.013848
2025-08-05T19:48:43.847630992Z,-0.055067,-0.223858,9.704298,-0.004128,-0.009454,-0.013848
2025-08-05T19:48:43.867489739Z,-0.044293,-0.214281,9.704298,-0.003329,-0.008522,-0.013848
2025-08-05T19:48:43.887367184Z,-0.057461,-0.209493,9.718663,-0.001864,-0.008256,-0.013848
2025-08-05T19:48:43.907229682Z,-0.050278,-0.223858,9.699510,-0.003995,-0.008389,-0.014914
2025-08-05T19:48:43.927099784Z,-0.061052,-0.222661,9.704298,-0.002131,-0.007590,-0.012783
2025-08-05T19:48:43.986696599Z,-0.056264,-0.217872,9.709086,-0.002796,-0.007989,-0.013848
2025-08-05T19:48:44.006579253Z,-0.053870,-0.213084,9.704298,-0.003063,-0.009587,-0.014914
2025-08-05T19:48:44.026423052Z,-0.040701,-0.215478,9.699510,-0.002397,-0.008522,-0.014914
2025-08-05T19:48:44.046294456Z,-0.038307,-0.221464,9.699510,-0.003462,-0.007856,-0.013848
2025-08-05T19:48:44.066213829Z,-0.049081,-0.231040,9.718663,-0.003329,-0.008123,-0.013848
2025-08-05T19:48:44.086083305Z,-0.049081,-0.216675,9.709086,-0.002530,-0.008123,-0.014914
2025-08-05T19:48:44.125779863Z,-0.053870,-0.207098,9.704298,-0.001465,-0.008123,-0.013848
2025-08-05T19:48:44.145670173Z,-0.050278,-0.222661,9.709086,-0.002131,-0.008522,-0.013848
2025-08-05T19:48:44.165522149Z,-0.059855,-0.209493,9.709086,-0.003329,-0.008256,-0.014914
2025-08-05T19:48:44.185450845Z,-0.041899,-0.221464,9.713875,-0.001731,-0.008522,-0.014914
2025-08-05T19:48:44.205324593Z,-0.057461,-0.225055,9.704298,-0.002530,-0.007590,-0.012783
2025-08-05T19:48:44.225157350Z,-0.052672,-0.203507,9.709086,-0.002796,-0.008522,-0.014914
2025-08-05T19:48:44.245017296Z,-0.040701,-0.217872,9.699510,-0.001332,-0.007989,-0.013848
2025-08-05T19:48:44.284769374Z,-0.044293,-0.221464,9.713875,-0.002796,-0.008522,-0.014914
2025-08-05T19:48:44.304695049Z,-0.052672,-0.225055,9.699510,-0.001198,-0.008256,-0.013848
2025-08-05T19:48:44.324516557Z,-0.056264,-0.204704,9.704298,-0.002131,-0.008389,-0.014914
2025-08-05T19:48:44.344362804Z,-0.049081,-0.193930,9.709086,-0.002663,-0.009188,-0.013848
2025-08-05T19:48:44.364289208Z,-0.040701,-0.220267,9.699510,-0.000666,-0.009321,-0.013848
2025-08-05T19:48:44.384128476Z,-0.047884,-0.220267,9.699510,-0.002796,-0.008389,-0.013848
2025-08-05T19:48:44.443764042Z,-0.057461,-0.197522,9.713875,-0.002530,-0.008123,-0.013848
2025-08-05T19:48:44.463628571Z,-0.056264,-0.234632,9.709086,-0.002663,-0.007723,-0.012783
2025-08-05T19:48:44.483471120Z,-0.050278,-0.234632,9.694721,-0.002264,-0.008389,-0.014914
2025-08-05T19:48:44.503359503Z,-0.058658,-0.217872,9.704298,-0.003196,-0.007590,-0.012783
2025-08-05T19:48:44.523186896Z,-0.035913,-0.217872,9.718663,-0.002663,-0.007590,-0.013848
2025-08-05T19:48:44.543059394Z,-0.059855,-0.217872,9.704298,-0.002264,-0.007723,-0.012783
2025-08-05T19:48:44.602746626Z,-0.044293,-0.222661,9.706094,-0.001731,-0.008256,-0.014914
2025-08-05T19:48:44.622529800Z,-0.032322,-0.227449,9.715671,-0.003063,-0.008788,-0.013848
2025-08-05T19:48:44.642450423Z,-0.051475,-0.228646,9.706094,-0.002131,-0.007989,-0.013848
2025-08-05T19:48:44.662326931Z,-0.043096,-0.205901,9.715671,-0.003063,-0.008655,-0.012783
2025-08-05T19:48:44.682171408Z,-0.052672,-0.198719,9.701305,-0.001065,-0.007989,-0.013848
2025-08-05T19:48:44.702099583Z,-0.056264,-0.213084,9.715671,-0.002796,-0.008922,-0.013848
2025-08-05T19:48:44.761716711Z,-0.058658,-0.213084,9.715671,-0.001065,-0.008522,-0.014914
2025-08-05T19:48:44.781542072Z,-0.043096,-0.222661,9.715671,-0.001198,-0.007856,-0.013848
2025-08-05T19:48:44.801402851Z,-0.045490,-0.202310,9.715671,-0.002663,-0.009587,-0.014914
2025-08-05T19:48:44.821282536Z,-0.053870,-0.233435,9.715671,-0.002264,-0.007856,-0.013848
2025-08-05T19:48:44.841148940Z,-0.055067,-0.250194,9.701305,-0.004128,-0.008123,-0.014914
2025-08-05T19:48:44.861017323Z,-0.046687,-0.227449,9.710882,-0.002530,-0.008522,-0.014914
2025-08-05T19:48:44.900748411Z,-0.051475,-0.215478,9.696517,-0.002796,-0.007989,-0.013848
2025-08-05T19:48:44.920621742Z,-0.065841,-0.203507,9.706094,-0.001465,-0.008123,-0.013848
2025-08-05T19:48:44.940469292Z,-0.041899,-0.214281,9.706094,-0.001198,-0.007856,-0.013848
2025-08-05T19:48:44.960397727Z,-0.037110,-0.221464,9.710882,-0.001465,-0.007989,-0.013848
2025-08-05T19:48:44.980223558Z,-0.038307,-0.222661,9.696517,-0.002796,-0.008788,-0.013848
2025-08-05T19:48:45.000096784Z,-0.063446,-0.239420,9.701305,-0.002131,-0.007856,-0.013848
2025-08-05T19:48:45.020220013Z,-0.063446,-0.222661,9.706094,-0.002264,-0.008123,-0.013848
2025-08-05T19:48:45.059731517Z,-0.043096,-0.222661,9.710882,-0.002131,-0.007590,-0.012783
2025-08-05T19:48:45.079847401Z,-0.055067,-0.233435,9.715671,-0.002530,-0.008123,-0.013848
2025-08-05T19:48:45.099466772Z,-0.056264,-0.213084,9.715671,-0.002264,-0.007723,-0.013848
2025-08-05T19:48:45.119300207Z,-0.050278,-0.216675,9.706094,-0.001198,-0.008123,-0.013848
2025-08-05T19:48:45.139203694Z,-0.040701,-0.223858,9.701305,-0.002796,-0.007856,-0.013848
2025-08-05T19:48:45.159099160Z,-0.046687,-0.201113,9.720459,-0.001465,-0.008522,-0.014914
2025-08-05T19:48:45.218691913Z,-0.058658,-0.231040,9.691729,-0.001332,-0.008123,-0.014914
2025-08-05T19:48:45.238545609Z,-0.056264,-0.221464,9.706094,-0.002264,-0.008522,-0.014914
2025-08-05T19:48:45.258656129Z,-0.039504,-0.223858,9.701305,-0.002796,-0.008123,-0.013848
2025-08-05T19:48:45.278259093Z,-0.046687,-0.198719,9.706094,-0.001065,-0.008522,-0.013848
2025-08-05T19:48:45.298147893Z,-0.041899,-0.222661,9.710882,-0.002131,-0.007191,-0.013848
2025-08-05T19:48:45.318095339Z,-0.053870,-0.213084,9.710882,-0.003462,-0.008123,-0.013848
2025-08-05T19:48:45.357791896Z,-0.070629,-0.233435,9.706094,-0.002397,-0.007989,-0.013848
2025-08-05T19:48:45.377680748Z,-0.046687,-0.219069,9.715671,-0.001198,-0.007057,-0.013848
2025-08-05T19:48:45.397506474Z,-0.040701,-0.201113,9.706094,-0.002796,-0.008123,-0.013848
2025-08-05T19:48:45.417360742Z,-0.050278,-0.221464,9.710882,-0.003063,-0.008256,-0.013848
2025-08-05T19:48:45.437253500Z,-0.050278,-0.227449,9.715671,-0.002929,-0.008123,-0.013848
2025-08-05T19:48:45.457143654Z,-0.058658,-0.229843,9.730036,-0.003329,-0.007057,-0.013848
2025-08-05T19:48:45.477006360Z,-0.015562,-0.117316,9.572019,-0.007191,-0.008256,-0.014914
2025-08-05T19:48:45.516719376Z,-0.099359,-0.293290,9.787497,-0.006392,-0.007191,-0.013848
2025-08-05T19:48:45.536580883Z,-0.099359,-0.314838,9.677363,-0.003995,-0.007590,-0.013848
2025-08-05T19:48:45.556648435Z,-0.080206,-0.226252,9.653421,-0.001997,-0.009188,-0.014914
2025-08-05T19:48:45.576367389Z,-0.023942,-0.169988,9.725247,-0.001997,-0.008655,-0.012783
2025-08-05T19:48:45.596200824Z,-0.035913,-0.189142,9.734824,-0.003862,-0.007723,-0.013848
2025-08-05T19:48:45.616097645Z,-0.038307,-0.226252,9.682152,-0.001198,-0.008389,-0.013848
2025-08-05T19:48:45.695581437Z,-0.059855,-0.172383,9.725247,-0.002530,-0.007723,-0.013848
2025-08-05T19:48:45.715453674Z,-0.022745,-0.201113,9.730036,-0.003595,-0.007723,-0.014914
2025-08-05T19:48:45.735506641Z,-0.009577,-0.205901,9.710882,-0.002663,-0.007590,-0.013848
2025-08-05T19:48:45.755195544Z,-0.050278,-0.247800,9.696517,-0.004261,-0.006924,-0.012783
2025-08-05T19:48:45.775140073Z,-0.087388,-0.272939,9.672575,-0.001997,-0.008788,-0.012783
2025-08-05T19:48:45.814809283Z,-0.055067,-0.189142,9.706094,-0.001332,-0.009055,-0.013848
2025-08-05T19:48:45.834682240Z,-0.032322,-0.195127,9.725247,-0.002397,-0.007989,-0.013848
2025-08-05T19:48:45.854555092Z,-0.035913,-0.190339,9.715671,-0.003728,-0.008123,-0.013848
2025-08-05T19:48:45.874418309Z,-0.056264,-0.231040,9.710882,-0.002929,-0.007590,-0.013848
2025-08-05T19:48:45.894309079Z,-0.070629,-0.217872,9.696517,-0.001065,-0.007723,-0.012783
2025-08-05T19:48:45.914140681Z,-0.069432,-0.231040,9.715671,-0.002397,-0.008522,-0.014914
2025-08-05T19:48:45.973762311Z,-0.028730,-0.235829,9.705794,-0.002131,-0.008256,-0.014381
2025-08-05T19:48:45.993610007Z,-0.063446,-0.232238,9.696218,-0.001465,-0.008123,-0.014381
2025-08-05T19:48:46.013475099Z,-0.064643,-0.208296,9.710583,-0.001198,-0.007989,-0.014381
2025-08-05T19:48:46.033344358Z,-0.061052,-0.207098,9.720160,-0.002397,-0.008123,-0.015446
2025-08-05T19:48:46.053297628Z,-0.044293,-0.213084,9.710583,-0.002131,-0.008522,-0.015446
2025-08-05T19:48:46.073306264Z,-0.039504,-0.222661,9.710583,-0.002530,-0.008123,-0.015446
2025-08-05T19:48:46.093212346Z,-0.039504,-0.233435,9.715371,-0.001465,-0.008522,-0.015446
2025-08-05T19:48:46.132710131Z,-0.070629,-0.222661,9.705794,-0.002397,-0.008123,-0.014381
2025-08-05T19:48:46.152637359Z,-0.058658,-0.234632,9.705794,-0.002796,-0.008522,-0.015446
2025-08-05T19:48:46.172477503Z,-0.056264,-0.228646,9.696218,-0.002264,-0.008123,-0.015446
2025-08-05T19:48:46.192329991Z,-0.034716,-0.223858,9.705794,-0.001997,-0.008655,-0.014381
2025-08-05T19:48:46.212209094Z,-0.043096,-0.209493,9.715371,-0.003063,-0.009188,-0.014381
2025-08-05T19:48:46.232037466Z,-0.053870,-0.205901,9.710583,-0.001598,-0.007856,-0.014381
2025-08-05T19:48:46.252119853Z,-0.064643,-0.202310,9.720160,-0.002397,-0.007590,-0.014381
2025-08-05T19:48:46.291695972Z,-0.038307,-0.223858,9.696218,-0.002929,-0.007856,-0.014381
2025-08-05T19:48:46.311521168Z,-0.056264,-0.229843,9.701006,-0.002131,-0.008256,-0.014381
2025-08-05T19:48:46.331445480Z,-0.056264,-0.228646,9.701006,-0.001065,-0.006658,-0.014381
2025-08-05T19:48:46.351285103Z,-0.074220,-0.223858,9.705794,-0.002796,-0.008256,-0.014381
2025-08-05T19:48:46.371157747Z,-0.055067,-0.225055,9.701006,-0.002663,-0.007989,-0.014381
2025-08-05T19:48:46.450648063Z,-0.057461,-0.215478,9.705794,-0.001864,-0.008389,-0.014381
2025-08-05T19:48:46.470526124Z,-0.055067,-0.213084,9.701006,-0.002929,-0.008922,-0.014381
2025-08-05T19:48:46.490375383Z,-0.047884,-0.219069,9.705794,-0.002264,-0.008256,-0.014381
2025-08-05T19:48:46.510253287Z,-0.043096,-0.227449,9.701006,-0.002264,-0.007590,-0.013316
2025-08-05T19:48:46.530304528Z,-0.053870,-0.227449,9.696218,-0.002397,-0.008389,-0.015446
2025-08-05T19:48:46.550001597Z,-0.038307,-0.220267,9.710583,-0.001332,-0.007590,-0.014381
2025-08-05T19:48:46.589732406Z,-0.056264,-0.213084,9.705794,-0.001332,-0.009321,-0.015446
2025-08-05T19:48:46.609615467Z,-0.052672,-0.207098,9.724948,-0.002796,-0.008522,-0.014381
2025-08-05T19:48:46.629490923Z,-0.051475,-0.225055,9.710583,-0.002530,-0.007723,-0.014381
2025-08-05T19:48:46.649369922Z,-0.049081,-0.217872,9.701006,-0.002929,-0.008389,-0.014381
2025-08-05T19:48:46.669202826Z,-0.051475,-0.213084,9.705794,-0.002264,-0.008256,-0.015446
2025-08-05T19:48:46.689135263Z,-0.051475,-0.227449,9.698612,-0.002397,-0.007590,-0.014381
2025-08-05T19:48:46.748702049Z,-0.056264,-0.229843,9.689035,-0.002397,-0.007723,-0.014381
2025-08-05T19:48:46.768621464Z,-0.056264,-0.208296,9.698612,-0.002397,-0.007191,-0.014381
2025-08-05T19:48:46.788468796Z,-0.043096,-0.213084,9.717766,-0.002530,-0.008522,-0.014381
2025-08-05T19:48:46.808310190Z,-0.049081,-0.225055,9.693824,-0.003063,-0.007856,-0.014381
2025-08-05T19:48:46.828177417Z,-0.047884,-0.216675,9.698612,-0.002663,-0.008256,-0.014381
2025-08-05T19:48:46.848059436Z,-0.064643,-0.223858,9.698612,-0.001598,-0.008389,-0.014381
2025-08-05T19:48:46.887873944Z,-0.055067,-0.225055,9.703401,-0.002131,-0.008389,-0.015446
2025-08-05T19:48:46.907661640Z,-0.045490,-0.232238,9.708189,-0.002397,-0.007723,-0.014381
2025-08-05T19:48:46.927515117Z,-0.053870,-0.220267,9.693824,-0.003063,-0.008655,-0.013316
2025-08-05T19:48:46.947417189Z,-0.055067,-0.233435,9.703401,-0.002264,-0.008256,-0.014381
2025-08-05T19:48:46.967290041Z,-0.057461,-0.220267,9.708189,-0.003995,-0.007590,-0.014381
2025-08-05T19:48:46.987168675Z,-0.050278,-0.209493,9.703401,-0.003862,-0.007856,-0.014381
2025-08-05T19:48:47.007204082Z,-0.049081,-0.208296,9.698612,-0.002131,-0.008522,-0.015446
2025-08-05T19:48:47.027092768Z,-0.049081,-0.217872,9.712977,-0.004128,-0.008788,-0.014381
2025-08-05T19:48:47.046755461Z,-0.050278,-0.239420,9.693824,-0.002530,-0.007723,-0.014381
2025-08-05T19:48:47.066613262Z,-0.057461,-0.220267,9.693824,-0.001598,-0.007856,-0.014381
2025-08-05T19:48:47.086478875Z,-0.045490,-0.223858,9.698612,-0.001864,-0.007723,-0.014381
2025-08-05T19:48:47.106366259Z,-0.059855,-0.207098,9.703401,-0.002397,-0.007590,-0.014381
2025-08-05T19:48:47.126219580Z,-0.046687,-0.219069,9.698612,-0.002397,-0.008123,-0.014381
2025-08-05T19:48:47.146086755Z,-0.040701,-0.219069,9.698612,-0.001065,-0.007590,-0.014381
2025-08-05T19:48:47.205720782Z,-0.055067,-0.213084,9.703401,-0.002530,-0.007989,-0.014381
2025-08-05T19:48:47.225596707Z,-0.049081,-0.215478,9.710882,-0.003595,-0.007856,-0.012783
2025-08-05T19:48:47.245501591Z,-0.061052,-0.227449,9.710882,-0.002663,-0.008256,-0.013848
2025-08-05T19:48:47.265345902Z,-0.050278,-0.232238,9.696517,-0.003063,-0.007590,-0.013848
2025-08-05T19:48:47.285224900Z,-0.056264,-0.220267,9.696517,-0.002530,-0.007989,-0.013848
2025-08-05T19:48:47.305081503Z,-0.052672,-0.213084,9.701305,-0.002530,-0.008389,-0.014914
2025-08-05T19:48:47.364766311Z,-0.047884,-0.207098,9.701305,-0.003063,-0.008788,-0.013848
2025-08-05T19:48:47.384594528Z,-0.049081,-0.210690,9.696517,-0.002796,-0.008922,-0.013848
2025-08-05T19:48:47.404393265Z,-0.051475,-0.229843,9.696517,-0.001198,-0.008522,-0.013848
2025-08-05T19:48:47.424291638Z,-0.050278,-0.220267,9.698612,-0.001065,-0.007723,-0.014381
2025-08-05T19:48:47.444193137Z,-0.049081,-0.213084,9.698612,-0.002663,-0.008256,-0.014381
2025-08-05T19:48:47.464039114Z,-0.037110,-0.219069,9.708189,-0.003728,-0.007989,-0.014381
2025-08-05T19:48:47.503777996Z,-0.050278,-0.217872,9.712977,-0.002131,-0.008522,-0.015446
2025-08-05T19:48:47.523634547Z,-0.056264,-0.225055,9.703401,-0.001065,-0.007723,-0.014381
2025-08-05T19:48:47.543701412Z,-0.062249,-0.219069,9.703401,-0.002131,-0.007590,-0.013316
2025-08-05T19:48:47.563390564Z,-0.057461,-0.211887,9.698612,-0.002264,-0.006791,-0.015446
2025-08-05T19:48:47.583266698Z,-0.052672,-0.213084,9.703401,-0.001731,-0.007723,-0.014381
2025-08-05T19:48:47.603114811Z,-0.035913,-0.209493,9.698612,-0.002796,-0.008389,-0.014381
2025-08-05T19:48:47.662748473Z,-0.065841,-0.216675,9.712977,-0.003063,-0.009587,-0.015446
2025-08-05T19:48:47.682624190Z,-0.035913,-0.228646,9.689035,-0.002796,-0.008123,-0.015446
2025-08-05T19:48:47.702478032Z,-0.043096,-0.204704,9.708189,-0.001065,-0.008522,-0.015446
2025-08-05T19:48:47.722193434Z,-0.051475,-0.220267,9.708189,-0.002663,-0.007856,-0.014381
2025-08-05T19:48:47.742261862Z,-0.053870,-0.217872,9.710882,-0.002530,-0.007989,-0.013848
2025-08-05T19:48:47.762105183Z,-0.052672,-0.216675,9.710882,-0.002796,-0.008522,-0.013848
2025-08-05T19:48:47.821699939Z,-0.052672,-0.219069,9.696517,-0.001198,-0.007723,-0.013848
2025-08-05T19:48:47.841600031Z,-0.057461,-0.211887,9.701305,-0.002264,-0.007856,-0.013848
2025-08-05T19:48:47.861446685Z,-0.038307,-0.226252,9.715671,-0.002530,-0.008522,-0.014914
2025-08-05T19:48:47.881333288Z,-0.049081,-0.227449,9.710882,-0.002530,-0.007590,-0.013848
2025-08-05T19:48:47.901190463Z,-0.065841,-0.225055,9.710882,-0.002796,-0.007590,-0.013848
2025-08-05T19:48:47.921051597Z,-0.038307,-0.208296,9.706094,-0.002530,-0.008123,-0.013848
2025-08-05T19:48:47.980666144Z,-0.047884,-0.227449,9.701305,-0.003063,-0.009188,-0.013848
2025-08-05T19:48:48.000567226Z,-0.050278,-0.227449,9.706094,-0.002530,-0.007723,-0.012783
2025-08-05T19:48:48.020388672Z,-0.047884,-0.209493,9.706094,-0.002131,-0.007590,-0.013848
2025-08-05T19:48:48.040311004Z,-0.058658,-0.207098,9.710882,-0.001198,-0.007989,-0.013848
2025-08-05T19:48:48.060154273Z,-0.051475,-0.208296,9.696517,-0.001065,-0.006658,-0.013848
2025-08-05T19:48:48.080011917Z,-0.053870,-0.225055,9.696517,-0.002264,-0.008123,-0.013848
2025-08-05T19:48:48.139616620Z,-0.053870,-0.215478,9.701305,-0.002796,-0.008522,-0.014914
2025-08-05T19:48:48.159477962Z,-0.050278,-0.227449,9.706094,-0.002663,-0.007856,-0.012783
2025-08-05T19:48:48.179397013Z,-0.052672,-0.211887,9.720459,-0.002663,-0.008123,-0.013848
2025-08-05T19:48:48.199253303Z,-0.047884,-0.211887,9.710882,-0.001997,-0.008922,-0.013848
2025-08-05T19:48:48.219084072Z,-0.056264,-0.221464,9.682152,-0.001864,-0.007856,-0.013848
2025-08-05T19:48:48.278754453Z,-0.045490,-0.227449,9.648633,-0.003595,-0.007989,-0.013848
2025-08-05T19:48:48.298585586Z,-0.065841,-0.243011,9.701305,-0.002796,-0.008123,-0.013848
2025-08-05T19:48:48.318447293Z,-0.050278,-0.209493,9.758766,-0.004128,-0.008922,-0.013848
2025-08-05T19:48:48.338357021Z,-0.057461,-0.221464,9.715671,-0.003329,-0.007989,-0.013848
2025-08-05T19:48:48.358226436Z,-0.046687,-0.208296,9.696517,-0.002264,-0.008256,-0.013848
2025-08-05T19:48:48.378076736Z,-0.047884,-0.204704,9.715671,-0.002131,-0.008522,-0.014914
2025-08-05T19:48:48.437734253Z,-0.053870,-0.203507,9.710882,-0.001332,-0.008256,-0.013848
2025-08-05T19:48:48.457579136Z,-0.044293,-0.220267,9.720459,-0.001997,-0.009055,-0.013848
2025-08-05T19:48:48.477441051Z,-0.058658,-0.208296,9.706094,-0.002530,-0.008256,-0.013848
2025-08-05T19:48:48.497317966Z,-0.052672,-0.221464,9.715671,-0.002264,-0.007989,-0.014914
2025-08-05T19:48:48.517176391Z,-0.049081,-0.228646,9.720459,-0.003862,-0.008256,-0.013848
2025-08-05T19:48:48.537026275Z,-0.051475,-0.211887,9.706094,-0.002530,-0.008522,-0.014914
2025-08-05T19:48:48.596663895Z,-0.040701,-0.221464,9.715671,-0.002397,-0.007590,-0.012783
2025-08-05T19:48:48.616546644Z,-0.056264,-0.220267,9.706094,-0.001198,-0.008256,-0.013848
2025-08-05T19:48:48.636439601Z,-0.053870,-0.221464,9.710882,-0.002131,-0.007723,-0.013848
2025-08-05T19:48:48.656271984Z,-0.049081,-0.220267,9.706094,-0.002530,-0.008522,-0.013848
2025-08-05T19:48:48.676120149Z,-0.049081,-0.220267,9.710882,-0.001731,-0.009188,-0.013848
2025-08-05T19:48:48.735747717Z,-0.049081,-0.229843,9.701305,-0.002131,-0.008522,-0.013848
2025-08-05T19:48:48.755608538Z,-0.062249,-0.208296,9.706094,-0.002397,-0.007723,-0.013848
2025-08-05T19:48:48.775513735Z,-0.039504,-0.220267,9.706094,-0.002264,-0.007856,-0.013848
2025-08-05T19:48:48.795354347Z,-0.044293,-0.220267,9.706094,-0.003063,-0.009188,-0.013848
2025-08-05T19:48:48.815211783Z,-0.053870,-0.209493,9.701305,-0.001198,-0.007989,-0.013848
2025-08-05T19:48:48.835127761Z,-0.044293,-0.214281,9.710882,-0.001997,-0.009055,-0.013848
2025-08-05T19:48:48.894740381Z,-0.050278,-0.227449,9.708189,-0.001731,-0.008522,-0.014381
2025-08-05T19:48:48.914597921Z,-0.058658,-0.228646,9.717766,-0.002796,-0.009587,-0.015446
2025-08-05T19:48:48.934453117Z,-0.047884,-0.219069,9.703401,-0.002131,-0.008522,-0.014381
2025-08-05T19:48:48.954344147Z,-0.057461,-0.217872,9.708189,-0.002929,-0.007989,-0.014381
2025-08-05T19:48:48.974172415Z,-0.051475,-0.211887,9.712977,-0.002530,-0.007856,-0.014381
2025-08-05T19:48:48.994060893Z,-0.051475,-0.216675,9.712977,-0.003862,-0.008256,-0.015446
2025-08-05T19:48:49.053676742Z,-0.043096,-0.209493,9.722554,-0.002530,-0.008389,-0.015446
2025-08-05T19:48:49.073543918Z,-0.056264,-0.214281,9.708189,-0.002530,-0.007590,-0.014381
2025-08-05T19:48:49.093623075Z,-0.051475,-0.213084,9.698612,-0.003196,-0.008123,-0.014381
2025-08-05T19:48:49.113485302Z,-0.049081,-0.217872,9.698612,-0.002796,-0.007856,-0.014381
2025-08-05T19:48:49.133150861Z,-0.051475,-0.221464,9.698612,-0.001864,-0.007989,-0.014381
2025-08-05T19:48:49.153108506Z,-0.058658,-0.210690,9.703401,-0.003063,-0.008256,-0.015446
2025-08-05T19:48:49.192770877Z,-0.046687,-0.229843,9.703401,-0.000133,-0.007057,-0.015446
2025-08-05T19:48:49.212637271Z,-0.070629,-0.228646,9.693824,-0.003063,-0.009055,-0.014381
2025-08-05T19:48:49.232581374Z,-0.047884,-0.223858,9.708189,-0.003728,-0.008123,-0.014381
2025-08-05T19:48:49.252451935Z,-0.052672,-0.211887,9.722554,-0.001465,-0.008123,-0.014381
2025-08-05T19:48:49.272282079Z,-0.039504,-0.223858,9.679459,-0.001198,-0.008522,-0.014381
2025-08-05T19:48:49.292125400Z,-0.058658,-0.214281,9.693824,-0.002929,-0.008522,-0.015446
2025-08-05T19:48:49.312007367Z,-0.047884,-0.210690,9.722554,-0.002131,-0.007723,-0.014381
2025-08-05T19:48:49.351740155Z,-0.051475,-0.227449,9.703401,-0.003595,-0.007856,-0.014381
2025-08-05T19:48:49.371626550Z,-0.044293,-0.219069,9.708189,-0.001465,-0.008123,-0.014381
2025-08-05T19:48:49.391479402Z,-0.057461,-0.228646,9.703401,-0.001598,-0.007989,-0.014381
2025-08-05T19:48:49.411339494Z,-0.047884,-0.205901,9.698612,-0.001864,-0.009454,-0.015446
2025-08-05T19:48:49.431257659Z,-0.049081,-0.221464,9.698612,-0.001198,-0.008522,-0.015446
2025-08-05T19:48:49.451097335Z,-0.053870,-0.216675,9.717766,-0.003462,-0.007856,-0.014381
2025-08-05T19:48:49.510707663Z,-0.047884,-0.219069,9.703401,-0.001997,-0.009454,-0.014381
2025-08-05T19:48:49.530569161Z,-0.055067,-0.213084,9.703401,-0.001332,-0.007989,-0.014381
2025-08-05T19:48:49.550477327Z,-0.062249,-0.205901,9.712977,-0.002663,-0.008123,-0.014381
2025-08-05T19:48:49.570330543Z,-0.052672,-0.217872,9.717766,-0.001864,-0.008788,-0.014381
2025-08-05T19:48:49.590171208Z,-0.039504,-0.232238,9.703401,-0.002530,-0.007989,-0.014381
2025-08-05T19:48:49.610040571Z,-0.050278,-0.223858,9.703401,-0.002264,-0.008123,-0.014381
2025-08-05T19:48:49.689519012Z,-0.049081,-0.215478,9.709086,-0.002663,-0.007590,-0.013848
2025-08-05T19:48:49.709424469Z,-0.053870,-0.214281,9.718663,-0.001198,-0.008256,-0.013848
2025-08-05T19:48:49.729275603Z,-0.045490,-0.211887,9.704298,-0.001198,-0.007590,-0.013848
2025-08-05T19:48:49.749121684Z,-0.047884,-0.223858,9.704298,-0.001598,-0.009055,-0.013848
2025-08-05T19:48:49.828647366Z,-0.046687,-0.229843,9.698612,-0.003063,-0.008655,-0.014381
2025-08-05T19:48:49.848703866Z,-0.052672,-0.208296,9.703401,-0.003063,-0.009321,-0.014381
2025-08-05T19:48:49.868389529Z,-0.044293,-0.219069,9.712977,-0.002264,-0.008522,-0.015446
2025-08-05T19:48:49.888231079Z,-0.063446,-0.219069,9.717766,-0.002264,-0.008522,-0.015446
2025-08-05T19:48:49.908121015Z,-0.028730,-0.207098,9.708189,-0.002397,-0.007989,-0.014381
2025-08-05T19:48:49.967728271Z,-0.059855,-0.216675,9.708189,-0.002530,-0.008256,-0.014381
2025-08-05T19:48:49.987578779Z,-0.059855,-0.210690,9.703401,-0.002264,-0.008256,-0.014381
2025-08-05T19:48:50.007448403Z,-0.051475,-0.228646,9.712977,-0.002131,-0.008256,-0.015446
2025-08-05T19:48:50.027331411Z,-0.049081,-0.215478,9.717766,-0.003063,-0.009055,-0.014381
2025-08-05T19:48:50.047217910Z,-0.049081,-0.196325,9.717766,-0.002663,-0.008788,-0.014381
2025-08-05T19:48:50.067089981Z,-0.065841,-0.221464,9.703401,-0.002530,-0.007856,-0.014381
2025-08-05T19:48:50.126673747Z,-0.055067,-0.221464,9.708189,-0.002397,-0.007723,-0.015446
2025-08-05T19:48:50.146572173Z,-0.047884,-0.216675,9.703401,-0.001864,-0.007590,-0.014381
2025-08-05T19:48:50.166414973Z,-0.053870,-0.227449,9.698612,-0.001332,-0.007590,-0.013316
2025-08-05T19:48:50.186341576Z,-0.047884,-0.210690,9.717766,-0.002397,-0.007856,-0.015446
2025-08-05T19:48:50.206139167Z,-0.044293,-0.219069,9.712977,-0.002663,-0.007989,-0.014381
2025-08-05T19:48:50.226091187Z,-0.051475,-0.225055,9.703401,-0.002264,-0.007723,-0.014381
2025-08-05T19:48:50.285660369Z,-0.052672,-0.210690,9.708189,-0.002131,-0.007856,-0.014381
2025-08-05T19:48:50.305719943Z,-0.044293,-0.213084,9.712977,-0.002530,-0.007723,-0.014381
2025-08-05T19:48:50.325564097Z,-0.043096,-0.214281,9.708189,-0.002131,-0.008123,-0.014381
2025-08-05T19:48:50.345270802Z,-0.047884,-0.211887,9.717766,-0.002131,-0.007590,-0.014381
2025-08-05T19:48:50.365168655Z,-0.050278,-0.211887,9.698612,-0.002397,-0.007989,-0.014381
2025-08-05T19:48:50.424753306Z,-0.053870,-0.219069,9.684247,-0.001731,-0.007856,-0.014381
2025-08-05T19:48:50.444635065Z,-0.055067,-0.225055,9.669882,-0.000533,-0.007723,-0.014381
2025-08-05T19:48:50.464481406Z,-0.038307,-0.216675,9.684247,-0.001598,-0.007856,-0.014381
2025-08-05T19:48:50.484366967Z,-0.056264,-0.217872,9.765650,-0.001598,-0.007856,-0.014381
2025-08-05T19:48:50.504183465Z,-0.056264,-0.210690,9.746496,-0.003063,-0.009321,-0.014381
2025-08-05T19:48:50.524089755Z,-0.065841,-0.216675,9.708189,-0.002131,-0.007856,-0.014381
2025-08-05T19:48:50.583709511Z,-0.045490,-0.216675,9.717766,-0.002131,-0.007723,-0.014381
2025-08-05T19:48:50.603573718Z,-0.052672,-0.203507,9.717766,-0.002796,-0.008522,-0.015446
2025-08-05T19:48:50.623645219Z,-0.051475,-0.220267,9.693824,-0.003063,-0.008788,-0.015446
2025-08-05T19:48:50.643339631Z,-0.046687,-0.211887,9.703401,-0.001065,-0.008522,-0.015446
2025-08-05T19:48:50.663183161Z,-0.063446,-0.210690,9.708189,-0.002397,-0.007989,-0.014381
2025-08-05T19:48:50.683055909Z,-0.064643,-0.207098,9.708189,-0.001864,-0.008922,-0.014381
2025-08-05T19:48:50.722794374Z,-0.028730,-0.217872,9.698612,-0.002796,-0.008522,-0.015446
2025-08-05T19:48:50.742652487Z,-0.047884,-0.225055,9.689035,-0.002131,-0.008389,-0.014381
2025-08-05T19:48:50.762579559Z,-0.047884,-0.211887,9.703401,-0.001198,-0.008123,-0.014381
2025-08-05T19:48:50.782407411Z,-0.044293,-0.223858,9.698612,-0.002663,-0.007723,-0.014381
2025-08-05T19:48:50.802271253Z,-0.047884,-0.217872,9.703401,-0.002796,-0.009188,-0.014381
2025-08-05T19:48:50.822185512Z,-0.057461,-0.227449,9.708189,-0.002131,-0.007989,-0.013316
2025-08-05T19:48:50.842043261Z,-0.049081,-0.208296,9.703401,-0.003329,-0.006525,-0.014381
2025-08-05T19:48:50.881774538Z,-0.056264,-0.225055,9.703401,-0.002397,-0.008522,-0.015446
2025-08-05T19:48:50.921526233Z,-0.050278,-0.223858,9.708189,-0.001465,-0.008522,-0.015446
2025-08-05T19:48:50.941370960Z,-0.039504,-0.213084,9.703401,-0.002929,-0.008922,-0.014381
2025-08-05T19:48:50.961284647Z,-0.041899,-0.219069,9.698612,-0.002264,-0.008123,-0.014381
2025-08-05T19:48:50.981133957Z,-0.065841,-0.219069,9.698612,-0.002530,-0.007856,-0.014381
2025-08-05T19:48:51.040730379Z,-0.045490,-0.227449,9.708189,-0.002264,-0.008123,-0.014381
2025-08-05T19:48:51.060617138Z,-0.052672,-0.211887,9.703401,-0.002397,-0.008389,-0.015446
2025-08-05T19:48:51.080461397Z,-0.059855,-0.222661,9.698612,-0.003063,-0.009055,-0.014381
2025-08-05T19:48:51.100315864Z,-0.050278,-0.223858,9.703401,-0.002929,-0.009454,-0.014381
2025-08-05T19:48:51.120237883Z,-0.044293,-0.215478,9.708189,-0.003995,-0.007989,-0.014381
2025-08-05T19:48:51.140067819Z,-0.058658,-0.223858,9.698612,-0.003063,-0.008922,-0.014381
2025-08-05T19:48:51.160007964Z,-0.039504,-0.234632,9.679459,-0.000266,-0.008256,-0.014381
2025-08-05T19:48:51.199871431Z,-0.059855,-0.247800,9.732131,-0.000932,-0.007989,-0.013316
2025-08-05T19:48:51.219628084Z,-0.077812,-0.205901,9.722554,-0.001332,-0.007590,-0.014381
2025-08-05T19:48:51.239415779Z,-0.033519,-0.161609,9.684247,-0.001598,-0.008655,-0.014381
2025-08-05T19:48:51.259296913Z,-0.028730,-0.195127,9.689035,-0.002131,-0.008123,-0.014381
2025-08-05T19:48:51.279171797Z,-0.046687,-0.247800,9.708189,-0.002131,-0.007989,-0.014381
2025-08-05T19:48:51.299065691Z,-0.050278,-0.256180,9.698612,-0.002264,-0.008256,-0.015446
2025-08-05T19:48:51.358682791Z,-0.035913,-0.187945,9.712977,-0.002131,-0.007590,-0.014381
2025-08-05T19:48:51.378548195Z,-0.015562,-0.217872,9.712977,-0.003196,-0.006924,-0.014381
2025-08-05T19:48:51.398412193Z,-0.026336,-0.280122,9.689035,-0.002131,-0.007856,-0.014381
2025-08-05T19:48:51.418269629Z,-0.052672,-0.268151,9.708189,-0.000000,-0.007856,-0.014381
2025-08-05T19:48:51.438161753Z,-0.062249,-0.237026,9.698612,-0.001598,-0.009587,-0.015446
2025-08-05T19:48:51.458023876Z,-0.068235,-0.184354,9.703401,-0.000533,-0.008123,-0.014381
2025-08-05T19:48:51.497752862Z,-0.046687,-0.211887,9.722554,-0.002929,-0.007989,-0.015446
2025-08-05T19:48:51.517633215Z,-0.053870,-0.228646,9.703401,-0.003063,-0.009587,-0.014381
2025-08-05T19:48:51.537494557Z,-0.040701,-0.226252,9.708189,-0.003196,-0.006525,-0.014381
2025-08-05T19:48:51.557364024Z,-0.061052,-0.223858,9.698612,-0.003995,-0.007590,-0.013316
2025-08-05T19:48:51.577256252Z,-0.058658,-0.207098,9.722554,-0.001598,-0.008389,-0.014381
2025-08-05T19:48:51.597107333Z,-0.045490,-0.217872,9.712977,-0.002530,-0.008389,-0.015446
2025-08-05T19:48:51.617001175Z,-0.034716,-0.229843,9.693824,-0.002264,-0.008389,-0.014381
2025-08-05T19:48:51.656706620Z,-0.058658,-0.210690,9.698612,-0.001997,-0.008922,-0.014381
2025-08-05T19:48:51.676583170Z,-0.059855,-0.192733,9.717766,-0.002929,-0.008655,-0.014381
2025-08-05T19:48:51.696465502Z,-0.045490,-0.193930,9.722554,-0.002397,-0.007989,-0.014381
2025-08-05T19:48:51.716331115Z,-0.051475,-0.223858,9.698612,-0.002929,-0.007989,-0.014381
2025-08-05T19:48:51.736208655Z,-0.037110,-0.219069,9.703401,-0.002796,-0.008389,-0.015446
2025-08-05T19:48:51.756060570Z,-0.061052,-0.232238,9.703401,-0.003462,-0.007590,-0.014381
2025-08-05T19:48:51.795785545Z,-0.068235,-0.205901,9.712977,-0.002397,-0.007723,-0.014381
2025-08-05T19:48:51.815705378Z,-0.065841,-0.219069,9.708189,-0.002264,-0.007856,-0.014381
2025-08-05T19:48:51.835570991Z,-0.051475,-0.223858,9.684247,-0.001332,-0.008788,-0.014381
2025-08-05T19:48:51.855441343Z,-0.038307,-0.223858,9.703401,-0.001731,-0.007856,-0.014381
2025-08-05T19:48:51.875257059Z,-0.059855,-0.223858,9.693824,-0.001864,-0.007989,-0.014381
2025-08-05T19:48:51.895137516Z,-0.045490,-0.211887,9.698612,-0.002131,-0.008389,-0.014381
2025-08-05T19:48:51.915017973Z,-0.061052,-0.228646,9.703401,-0.001864,-0.007989,-0.014381
2025-08-05T19:48:51.954771543Z,-0.033519,-0.213084,9.703401,-0.004128,-0.009321,-0.014381
2025-08-05T19:48:51.974647052Z,-0.049081,-0.221464,9.712977,-0.004128,-0.009587,-0.015446
2025-08-05T19:48:51.994504487Z,-0.050278,-0.233435,9.703401,-0.004128,-0.007856,-0.014381
2025-08-05T19:48:52.014426663Z,-0.069432,-0.237026,9.703401,-0.001065,-0.008256,-0.013316
2025-08-05T19:48:52.034255974Z,-0.065841,-0.221464,9.727343,-0.002663,-0.007590,-0.014381
2025-08-05T19:48:52.054151639Z,-0.055067,-0.209493,9.712977,-0.003063,-0.008922,-0.014381
2025-08-05T19:48:52.113741498Z,-0.053870,-0.202310,9.712977,-0.002796,-0.008256,-0.015446
2025-08-05T19:48:52.133648206Z,-0.039504,-0.222661,9.698612,-0.002397,-0.008522,-0.015446
2025-08-05T19:48:52.153488766Z,-0.050278,-0.216675,9.712977,-0.001997,-0.008522,-0.015446
2025-08-05T19:48:52.173385733Z,-0.038307,-0.225055,9.698612,-0.001065,-0.007723,-0.014381
2025-08-05T19:48:52.193226711Z,-0.046687,-0.228646,9.701305,-0.002929,-0.009454,-0.014914
2025-08-05T19:48:52.213094771Z,-0.047884,-0.220267,9.710882,-0.002663,-0.007590,-0.013848
2025-08-05T19:48:52.272708485Z,-0.049081,-0.219069,9.697414,-0.003329,-0.007989,-0.014781
2025-08-05T19:48:52.292572067Z,-0.068235,-0.217872,9.711780,-0.002264,-0.008256,-0.014781
2025-08-05T19:48:52.312440753Z,-0.052672,-0.229843,9.692626,-0.001198,-0.008522,-0.015846
2025-08-05T19:48:52.332307511Z,-0.061052,-0.219069,9.687838,-0.002131,-0.008256,-0.015846
2025-08-05T19:48:52.352418856Z,-0.055067,-0.213084,9.711780,-0.002796,-0.007989,-0.014781
2025-08-05T19:48:52.372278115Z,-0.055067,-0.217872,9.697414,-0.002131,-0.007590,-0.014781
2025-08-05T19:48:52.392126801Z,-0.051475,-0.223858,9.697414,-0.002663,-0.009587,-0.015846
2025-08-05T19:48:52.431677035Z,-0.053870,-0.228646,9.702203,-0.002397,-0.007723,-0.014781
2025-08-05T19:48:52.451553585Z,-0.049081,-0.216675,9.711780,-0.002264,-0.008123,-0.014781
2025-08-05T19:48:52.471394927Z,-0.043096,-0.226252,9.711780,-0.002929,-0.007989,-0.013715
2025-08-05T19:48:52.491290800Z,-0.059855,-0.222661,9.702203,-0.002929,-0.007723,-0.014781
2025-08-05T19:48:52.511131465Z,-0.055067,-0.209493,9.702203,-0.002131,-0.007590,-0.014781
2025-08-05T19:48:52.531008380Z,-0.052672,-0.215478,9.692626,-0.002796,-0.007723,-0.014781
2025-08-05T19:48:52.570752835Z,-0.047884,-0.229843,9.687838,-0.003063,-0.009587,-0.015846
2025-08-05T19:48:52.590630792Z,-0.055067,-0.223858,9.702203,-0.002131,-0.007723,-0.014781
2025-08-05T19:48:52.610547656Z,-0.055067,-0.205901,9.706991,-0.002796,-0.008256,-0.014781
2025-08-05T19:48:52.630391862Z,-0.044293,-0.197522,9.711780,-0.001731,-0.008522,-0.015846
2025-08-05T19:48:52.650255183Z,-0.047884,-0.215478,9.683049,-0.002264,-0.007723,-0.014781
2025-08-05T19:48:52.670127202Z,-0.053870,-0.219069,9.697414,-0.001731,-0.008655,-0.013715
2025-08-05T19:48:52.690019847Z,-0.049081,-0.203507,9.697414,-0.002264,-0.007856,-0.014781
2025-08-05T19:48:52.729768625Z,-0.040701,-0.222661,9.716568,-0.002796,-0.007856,-0.014781
2025-08-05T19:48:52.749671478Z,-0.041899,-0.223858,9.702203,-0.003329,-0.008389,-0.014781
2025-08-05T19:48:52.769474329Z,-0.059855,-0.226252,9.692626,-0.002264,-0.008123,-0.014781
2025-08-05T19:48:52.789331765Z,-0.047884,-0.223858,9.702203,-0.001598,-0.007856,-0.014781
2025-08-05T19:48:52.809240347Z,-0.045490,-0.231040,9.706991,-0.001864,-0.007989,-0.014781
2025-08-05T19:48:52.829097002Z,-0.044293,-0.216675,9.706991,-0.001065,-0.008389,-0.014781
2025-08-05T19:48:52.888698267Z,-0.053870,-0.213084,9.687838,-0.001198,-0.007989,-0.014781
2025-08-05T19:48:52.908573516Z,-0.059855,-0.219069,9.706991,-0.001997,-0.009055,-0.014781
2025-08-05T19:48:52.928639131Z,-0.050278,-0.208296,9.702203,-0.002929,-0.008522,-0.015846
2025-08-05T19:48:52.948301721Z,-0.047884,-0.198719,9.716568,-0.002264,-0.008123,-0.014781
2025-08-05T19:48:52.968168531Z,-0.045490,-0.203507,9.716568,-0.002264,-0.008522,-0.015846
2025-08-05T19:48:52.988022165Z,-0.040701,-0.202310,9.716568,-0.001997,-0.009587,-0.015846
2025-08-05T19:48:53.027788652Z,-0.041899,-0.243011,9.702203,-0.002796,-0.008522,-0.015846
2025-08-05T19:48:53.047661087Z,-0.062249,-0.225055,9.692626,-0.002530,-0.008522,-0.015846
2025-08-05T19:48:53.067708838Z,-0.065841,-0.240617,9.687838,-0.001598,-0.007856,-0.014781
2025-08-05T19:48:53.087385803Z,-0.056264,-0.231040,9.697414,-0.002796,-0.008389,-0.015846
2025-08-05T19:48:53.107257197Z,-0.046687,-0.208296,9.721356,-0.002131,-0.007856,-0.014781
2025-08-05T19:48:53.127119789Z,-0.046687,-0.220267,9.706991,-0.002264,-0.007324,-0.015846
2025-08-05T19:48:53.147002537Z,-0.038307,-0.202310,9.711780,-0.002264,-0.008256,-0.014781
2025-08-05T19:48:53.167050861Z,-0.052672,-0.203507,9.711780,-0.002929,-0.009188,-0.015846
2025-08-05T19:48:53.206842348Z,-0.047884,-0.237026,9.693824,-0.001997,-0.007723,-0.014381
2025-08-05T19:48:53.226531708Z,-0.038307,-0.219069,9.689035,-0.001465,-0.009055,-0.013316
2025-08-05T19:48:53.246407790Z,-0.056264,-0.195127,9.708189,-0.002929,-0.008123,-0.014381
2025-08-05T19:48:53.266240694Z,-0.070629,-0.213084,9.708189,-0.003196,-0.007057,-0.014381
2025-08-05T19:48:53.286073598Z,-0.051475,-0.239420,9.698612,-0.003329,-0.007723,-0.013316
2025-08-05T19:48:53.345726844Z,-0.044293,-0.195127,9.712977,-0.003063,-0.009454,-0.015446
2025-08-05T19:48:53.365602874Z,-0.043096,-0.196325,9.708189,-0.001731,-0.008123,-0.014381
2025-08-05T19:48:53.385461820Z,-0.051475,-0.210690,9.698612,-0.002264,-0.008123,-0.014381
2025-08-05T19:48:53.405330349Z,-0.049081,-0.222661,9.698612,-0.002131,-0.007856,-0.014381
2025-08-05T19:48:53.425196379Z,-0.056264,-0.235829,9.698612,-0.001864,-0.008123,-0.014381
2025-08-05T19:48:53.445088503Z,-0.057461,-0.205901,9.689035,-0.003063,-0.008655,-0.014381
2025-08-05T19:48:53.504682320Z,-0.064643,-0.211887,9.712977,-0.003728,-0.008256,-0.014381
2025-08-05T19:48:53.524553558Z,-0.056264,-0.215478,9.708189,-0.002663,-0.008256,-0.014381
2025-08-05T19:48:53.544426411Z,-0.063446,-0.219069,9.703401,-0.002397,-0.008522,-0.015446
2025-08-05T19:48:53.564271867Z,-0.055067,-0.211887,9.708189,-0.002663,-0.008522,-0.015446
2025-08-05T19:48:53.584145084Z,-0.051475,-0.216675,9.693824,-0.001332,-0.007590,-0.014381
2025-08-05T19:48:53.604021947Z,-0.052672,-0.238223,9.703401,-0.001598,-0.007989,-0.014381
2025-08-05T19:48:53.643799736Z,-0.052672,-0.222661,9.712977,-0.002796,-0.008256,-0.014381
2025-08-05T19:48:53.663622067Z,-0.059855,-0.220267,9.698612,-0.002131,-0.008123,-0.014381
2025-08-05T19:48:53.683508878Z,-0.049081,-0.203507,9.698612,-0.001332,-0.008522,-0.014381
2025-08-05T19:48:53.703359335Z,-0.046687,-0.211887,9.712977,-0.001864,-0.007590,-0.014381
2025-08-05T19:48:53.723249427Z,-0.043096,-0.203507,9.712977,-0.002663,-0.008522,-0.014381
2025-08-05T19:48:53.743131342Z,-0.056264,-0.229843,9.693824,-0.002929,-0.008123,-0.014381
2025-08-05T19:48:53.763177634Z,-0.050278,-0.211887,9.712977,-0.002530,-0.008256,-0.014381
2025-08-05T19:48:53.802759067Z,-0.052672,-0.214281,9.712977,-0.003063,-0.008655,-0.014381
2025-08-05T19:48:53.822638534Z,-0.050278,-0.228646,9.717766,-0.002796,-0.008922,-0.014381
2025-08-05T19:48:53.842516126Z,-0.050278,-0.214281,9.689035,-0.002131,-0.007989,-0.014381
2025-08-05T19:48:53.862361426Z,-0.040701,-0.219069,9.717766,-0.002397,-0.007989,-0.014381
2025-08-05T19:48:53.882246987Z,-0.043096,-0.204704,9.717766,-0.003728,-0.007590,-0.013316
2025-08-05T19:48:53.902167080Z,-0.052672,-0.204704,9.703401,-0.002663,-0.008256,-0.014381
2025-08-05T19:48:53.961741574Z,-0.051475,-0.225055,9.712977,-0.002796,-0.007989,-0.014381
2025-08-05T19:48:53.981550051Z,-0.061052,-0.217872,9.703401,-0.002530,-0.008256,-0.014381
2025-08-05T19:48:54.001459727Z,-0.046687,-0.225055,9.712977,-0.002929,-0.008123,-0.014381
2025-08-05T19:48:54.021293933Z,-0.046687,-0.217872,9.708189,-0.003063,-0.009321,-0.014381
2025-08-05T19:48:54.041201370Z,-0.044293,-0.207098,9.703401,-0.002264,-0.007989,-0.014381
2025-08-05T19:48:54.061044378Z,-0.038307,-0.226252,9.712977,-0.002796,-0.007989,-0.014381
2025-08-05T19:48:54.100819406Z,-0.055067,-0.214281,9.708189,-0.003063,-0.008788,-0.014381
2025-08-05T19:48:54.120673352Z,-0.050278,-0.222661,9.698612,-0.002530,-0.008922,-0.014381
2025-08-05T19:48:54.140524746Z,-0.034716,-0.214281,9.708189,-0.002264,-0.007989,-0.014381
2025-08-05T19:48:54.160391870Z,-0.038307,-0.205901,9.703401,-0.001065,-0.007856,-0.014381
2025-08-05T19:48:54.180244462Z,-0.063446,-0.219069,9.693824,-0.004128,-0.008389,-0.014381
2025-08-05T19:48:54.200154085Z,-0.039504,-0.208296,9.708189,-0.002530,-0.007723,-0.014381
2025-08-05T19:48:54.220009594Z,-0.049081,-0.214281,9.703401,-0.001198,-0.008123,-0.014381
2025-08-05T19:48:54.279629922Z,-0.055067,-0.207098,9.722554,-0.002264,-0.007856,-0.014381
2025-08-05T19:48:54.299514806Z,-0.056264,-0.216675,9.698612,-0.002796,-0.007989,-0.014381
2025-08-05T19:48:54.319363648Z,-0.062249,-0.202310,9.708189,-0.002397,-0.007723,-0.014381
2025-08-05T19:48:54.339253272Z,-0.049081,-0.228646,9.708189,-0.003063,-0.008788,-0.014381
2025-08-05T19:48:54.359335033Z,-0.043096,-0.207098,9.698612,-0.002796,-0.007856,-0.014381
2025-08-05T19:48:54.418749317Z,-0.065841,-0.223858,9.703401,-0.003063,-0.007989,-0.014381
2025-08-05T19:48:54.438604826Z,-0.058658,-0.216675,9.712977,-0.002397,-0.007856,-0.014381
2025-08-05T19:48:54.458498929Z,-0.055067,-0.208296,9.708189,-0.001598,-0.008256,-0.015446
2025-08-05T19:48:54.478342041Z,-0.052672,-0.227449,9.703401,-0.002131,-0.008256,-0.014381
2025-08-05T19:48:54.498438438Z,-0.050278,-0.214281,9.712977,-0.002397,-0.008256,-0.014381
2025-08-05T19:48:54.518078892Z,-0.053870,-0.211887,9.712977,-0.001065,-0.008256,-0.014381
2025-08-05T19:48:54.577684116Z,-0.047884,-0.234632,9.698612,-0.003063,-0.009321,-0.014381
2025-08-05T19:48:54.597772232Z,-0.052672,-0.221464,9.708189,-0.002264,-0.007989,-0.014381
2025-08-05T19:48:54.617417478Z,-0.039504,-0.217872,9.703401,-0.002397,-0.007856,-0.014381
2025-08-05T19:48:54.637529656Z,-0.047884,-0.210690,9.698612,-0.002530,-0.008123,-0.014381
2025-08-05T19:48:54.657159901Z,-0.046687,-0.213084,9.712977,-0.003063,-0.008922,-0.014381
2025-08-05T19:48:54.677047702Z,-0.038307,-0.217872,9.708189,-0.003063,-0.009055,-0.014381
2025-08-05T19:48:54.716766584Z,-0.069432,-0.202310,9.703401,-0.002264,-0.007989,-0.015446
2025-08-05T19:48:54.736697614Z,-0.069432,-0.213084,9.708189,-0.002397,-0.007989,-0.014381
2025-08-05T19:48:54.756521404Z,-0.049081,-0.219069,9.698612,-0.002530,-0.008522,-0.015446
2025-08-05T19:48:54.776386183Z,-0.038307,-0.240617,9.698612,-0.001997,-0.008922,-0.014381
2025-08-05T19:48:54.796308359Z,-0.049081,-0.229843,9.708189,-0.002397,-0.008256,-0.014381
2025-08-05T19:48:54.816144076Z,-0.052672,-0.213084,9.693824,-0.003063,-0.009587,-0.015446
2025-08-05T19:48:54.836032762Z,-0.035913,-0.232238,9.699510,-0.002264,-0.008389,-0.014381
2025-08-05T19:48:54.875742633Z,-0.050278,-0.228646,9.701006,-0.001198,-0.008522,-0.015446
2025-08-05T19:48:54.895608038Z,-0.043096,-0.228646,9.710583,-0.002796,-0.008123,-0.014381
2025-08-05T19:48:54.915497766Z,-0.062249,-0.207098,9.705794,-0.003462,-0.007723,-0.014381
2025-08-05T19:48:54.935344889Z,-0.047884,-0.211887,9.710583,-0.002131,-0.007856,-0.014381
2025-08-05T19:48:54.955219616Z,-0.041899,-0.219069,9.710583,-0.003862,-0.008522,-0.015446
2025-08-05T19:48:54.975101583Z,-0.019154,-0.215478,9.705794,-0.001198,-0.008256,-0.015446
2025-08-05T19:48:55.034727329Z,-0.065841,-0.220267,9.710583,-0.002929,-0.008123,-0.014381
2025-08-05T19:48:55.054634609Z,-0.064643,-0.211887,9.710583,-0.002131,-0.008389,-0.015446
2025-08-05T19:48:55.074441002Z,-0.033519,-0.205901,9.705794,-0.003462,-0.007723,-0.014381
2025-08-05T19:48:55.094306615Z,-0.045490,-0.211887,9.705794,-0.001198,-0.008123,-0.014381
2025-08-05T19:48:55.114184468Z,-0.034716,-0.219069,9.696218,-0.002530,-0.008123,-0.014381
2025-08-05T19:48:55.134047841Z,-0.051475,-0.213084,9.710583,-0.001198,-0.007723,-0.014381
2025-08-05T19:48:55.193688847Z,-0.049081,-0.214281,9.705794,-0.002264,-0.007989,-0.014381
2025-08-05T19:48:55.213528157Z,-0.039504,-0.217872,9.701006,-0.002796,-0.009587,-0.015446
2025-08-05T19:48:55.233449396Z,-0.059855,-0.221464,9.705794,-0.002796,-0.008123,-0.014381
2025-08-05T19:48:55.253287821Z,-0.058658,-0.228646,9.705794,-0.002264,-0.007590,-0.014381
2025-08-05T19:48:55.273164475Z,-0.052672,-0.219069,9.701006,-0.002131,-0.006791,-0.014381
2025-08-05T19:48:55.293034672Z,-0.046687,-0.215478,9.710583,-0.001332,-0.007723,-0.014381
2025-08-05T19:48:55.332764908Z,-0.050278,-0.201113,9.715371,-0.001465,-0.008522,-0.014381
2025-08-05T19:48:55.352664584Z,-0.046687,-0.228646,9.691429,-0.001465,-0.008256,-0.015446
2025-08-05T19:48:55.372496654Z,-0.044293,-0.220267,9.696218,-0.002131,-0.008522,-0.015446
2025-08-05T19:48:55.392392684Z,-0.029928,-0.248997,9.715371,-0.004527,-0.007989,-0.014381
2025-08-05T19:48:55.412262568Z,-0.049081,-0.228646,9.686940,-0.003196,-0.008256,-0.013848
2025-08-05T19:48:55.432123493Z,-0.061052,-0.223858,9.696517,-0.001332,-0.007989,-0.013848
2025-08-05T19:48:55.491732051Z,-0.046687,-0.213084,9.701305,-0.002397,-0.007723,-0.013848
2025-08-05T19:48:55.511637300Z,-0.046687,-0.222661,9.701305,-0.002796,-0.007989,-0.013848
2025-08-05T19:48:55.531449110Z,-0.043096,-0.211887,9.696517,-0.002530,-0.007723,-0.012783
2025-08-05T19:48:55.551330296Z,-0.080206,-0.219069,9.691729,-0.000133,-0.007989,-0.013848
2025-08-05T19:48:55.571183356Z,-0.056264,-0.228646,9.715671,-0.001332,-0.008123,-0.014914
2025-08-05T19:48:55.591318868Z,-0.056264,-0.225055,9.710882,-0.002397,-0.008123,-0.013848
2025-08-05T19:48:55.650881384Z,-0.034716,-0.231040,9.696517,-0.002131,-0.008522,-0.013848
2025-08-05T19:48:55.670599495Z,-0.062249,-0.229843,9.710882,-0.001198,-0.007590,-0.013848
2025-08-05T19:48:55.690454795Z,-0.051475,-0.213084,9.701305,-0.001864,-0.007723,-0.013848
2025-08-05T19:48:55.710332543Z,-0.046687,-0.208296,9.701305,-0.001465,-0.008123,-0.013848
2025-08-05T19:48:55.730196073Z,-0.045490,-0.199916,9.706094,-0.002530,-0.007989,-0.013848
2025-08-05T19:48:55.750068925Z,-0.039504,-0.209493,9.720459,-0.004128,-0.008922,-0.013848
2025-08-05T19:48:55.809682379Z,-0.059855,-0.222661,9.720459,-0.002530,-0.007723,-0.013848
2025-08-05T19:48:55.829540492Z,-0.045490,-0.199916,9.715671,-0.003595,-0.008522,-0.014914
2025-08-05T19:48:55.849605430Z,-0.040701,-0.220267,9.691729,-0.003862,-0.007856,-0.013848
2025-08-05T19:48:55.869281613Z,-0.032322,-0.232238,9.691729,-0.002530,-0.008256,-0.013848
2025-08-05T19:48:55.889159310Z,-0.051475,-0.213084,9.710882,-0.002397,-0.008256,-0.013848
2025-08-05T19:48:55.909010599Z,-0.063446,-0.207098,9.725247,-0.003728,-0.007723,-0.013848
2025-08-05T19:48:55.948741773Z,-0.052672,-0.228646,9.696517,-0.003595,-0.008522,-0.014914
2025-08-05T19:48:55.968619157Z,-0.039504,-0.220267,9.696517,-0.002663,-0.007590,-0.013848
2025-08-05T19:48:55.988714512Z,-0.037110,-0.211887,9.701305,-0.002929,-0.009188,-0.013848
2025-08-05T19:48:56.008358924Z,-0.050278,-0.211887,9.706094,-0.002796,-0.008788,-0.012783
2025-08-05T19:48:56.028470999Z,-0.047884,-0.211887,9.715671,-0.002131,-0.007723,-0.013848
2025-08-05T19:48:56.048353799Z,-0.055067,-0.238223,9.682152,-0.002397,-0.007989,-0.013848
2025-08-05T19:48:56.068165870Z,-0.011971,-0.221464,9.791986,-0.001864,-0.007324,-0.014381
2025-08-05T19:48:56.107691156Z,-0.046687,-0.196325,9.672276,-0.004128,-0.007989,-0.014381
2025-08-05T19:48:56.127813959Z,-0.034716,-0.221464,9.715371,-0.002530,-0.006924,-0.014381
2025-08-05T19:48:56.147426340Z,-0.052672,-0.245406,9.729736,-0.002929,-0.008123,-0.014381
2025-08-05T19:48:56.167341536Z,-0.065841,-0.233435,9.691429,-0.002530,-0.008389,-0.015446
2025-08-05T19:48:56.187247983Z,-0.056264,-0.229843,9.701006,-0.001065,-0.007057,-0.014381
2025-08-05T19:48:56.207079429Z,-0.049081,-0.222661,9.715371,-0.001997,-0.008922,-0.014381
2025-08-05T19:48:56.266710122Z,-0.044293,-0.213084,9.720160,-0.001598,-0.007856,-0.014381
2025-08-05T19:48:56.286546933Z,-0.070629,-0.228646,9.691429,-0.002264,-0.007989,-0.014381
2025-08-05T19:48:56.306422650Z,-0.062249,-0.219069,9.705794,-0.002264,-0.008256,-0.014381
2025-08-05T19:48:56.326346440Z,-0.058658,-0.226252,9.715371,-0.004128,-0.009055,-0.014381
2025-08-05T19:48:56.346159761Z,-0.027533,-0.221464,9.710583,-0.002929,-0.009188,-0.014381
2025-08-05T19:48:56.366068291Z,-0.029928,-0.220267,9.705794,-0.003329,-0.008389,-0.015446
2025-08-05T19:48:56.425640650Z,-0.062249,-0.204704,9.701006,-0.002530,-0.007723,-0.014381
2025-08-05T19:48:56.445513867Z,-0.049081,-0.211887,9.710583,-0.001997,-0.008922,-0.014381
2025-08-05T19:48:56.465380886Z,-0.050278,-0.202310,9.715371,-0.002397,-0.008389,-0.014381
2025-08-05T19:48:56.485453481Z,-0.056264,-0.220267,9.705794,-0.001731,-0.009055,-0.014381
2025-08-05T19:48:56.505121019Z,-0.046687,-0.223858,9.705794,-0.002397,-0.008522,-0.015446
2025-08-05T19:48:56.525011267Z,-0.055067,-0.220267,9.696218,-0.002796,-0.007856,-0.014381
2025-08-05T19:48:56.564729680Z,-0.041899,-0.228646,9.696218,-0.003063,-0.008522,-0.015446
2025-08-05T19:48:56.584635137Z,-0.037110,-0.239420,9.701006,-0.002131,-0.008123,-0.014381
2025-08-05T19:48:56.604457052Z,-0.035913,-0.209493,9.705794,-0.001997,-0.007723,-0.014381
2025-08-05T19:48:56.624335373Z,-0.074220,-0.210690,9.696218,-0.002397,-0.007856,-0.014381
2025-08-05T19:48:56.644192861Z,-0.059855,-0.205901,9.705794,-0.002131,-0.008522,-0.015446
2025-08-05T19:48:56.664086703Z,-0.055067,-0.207098,9.710583,-0.002264,-0.007590,-0.014381
2025-08-05T19:48:56.723735834Z,-0.064643,-0.223858,9.701006,-0.002397,-0.008256,-0.014381
2025-08-05T19:48:56.743801970Z,-0.047884,-0.225055,9.705794,-0.002264,-0.008522,-0.014381
2025-08-05T19:48:56.763434039Z,-0.055067,-0.220267,9.710583,-0.002264,-0.007989,-0.014381
2025-08-05T19:48:56.783344496Z,-0.051475,-0.215478,9.701006,-0.002264,-0.008123,-0.014381
2025-08-05T19:48:56.803190838Z,-0.047884,-0.202310,9.715371,-0.002663,-0.007590,-0.014381
2025-08-05T19:48:56.823075409Z,-0.044293,-0.208296,9.705794,-0.003196,-0.008522,-0.015446
2025-08-05T19:48:56.862831531Z,-0.056264,-0.228646,9.696218,-0.002530,-0.008389,-0.014381
2025-08-05T19:48:56.882692821Z,-0.059855,-0.214281,9.704298,-0.002264,-0.007856,-0.014381
2025-08-05T19:48:56.902581767Z,-0.043096,-0.207098,9.718663,-0.002929,-0.008522,-0.014381
2025-08-05T19:48:56.922415453Z,-0.043096,-0.214281,9.709086,-0.003462,-0.007856,-0.014381
2025-08-05T19:48:56.942275701Z,-0.046687,-0.217872,9.689933,-0.002929,-0.007989,-0.014381
2025-08-05T19:48:56.962206054Z,-0.058658,-0.214281,9.704298,-0.002663,-0.007989,-0.014381
2025-08-05T19:48:56.982048125Z,-0.047884,-0.222661,9.704298,-0.002264,-0.007989,-0.014381
2025-08-05T19:48:57.021799455Z,-0.041899,-0.216675,9.709086,-0.002796,-0.008922,-0.014381
2025-08-05T19:48:57.041621109Z,-0.043096,-0.202310,9.689933,-0.003595,-0.009454,-0.015446
2025-08-05T19:48:57.061540212Z,-0.046687,-0.226252,9.713875,-0.002397,-0.008256,-0.014381
2025-08-05T19:48:57.081357752Z,-0.057461,-0.216675,9.709086,-0.002929,-0.007989,-0.015446
2025-08-05T19:48:57.101241438Z,-0.064643,-0.221464,9.704298,-0.002397,-0.008389,-0.015446
2025-08-05T19:48:57.121094551Z,-0.055067,-0.211887,9.718663,-0.002530,-0.007856,-0.014381
2025-08-05T19:48:57.180826651Z,-0.057461,-0.219069,9.705794,-0.002397,-0.008522,-0.015446
2025-08-05T19:48:57.200625961Z,-0.047884,-0.214281,9.710583,-0.003063,-0.008922,-0.014381
2025-08-05T19:48:57.220520949Z,-0.046687,-0.213084,9.705794,-0.001198,-0.008522,-0.015446
2025-08-05T19:48:57.240341353Z,-0.056264,-0.221464,9.710583,-0.002397,-0.008256,-0.015446
2025-08-05T19:48:57.260199935Z,-0.050278,-0.223858,9.715371,-0.002530,-0.007723,-0.014381
2025-08-05T19:48:57.280087319Z,-0.051475,-0.222661,9.710583,-0.004128,-0.008788,-0.014381
2025-08-05T19:48:57.300034495Z,-0.038307,-0.228646,9.701006,-0.003862,-0.008922,-0.014381
2025-08-05T19:48:57.339696449Z,-0.039504,-0.245406,9.699510,-0.001332,-0.008123,-0.015446
2025-08-05T19:48:57.359548104Z,-0.049081,-0.231040,9.694721,-0.001864,-0.008922,-0.014381
2025-08-05T19:48:57.379434550Z,-0.049081,-0.223858,9.709086,-0.002264,-0.008123,-0.014381
2025-08-05T19:48:57.399304382Z,-0.058658,-0.203507,9.709086,-0.001198,-0.008389,-0.014381
2025-08-05T19:48:57.419159734Z,-0.039504,-0.210690,9.709086,-0.002929,-0.009188,-0.014381
2025-08-05T19:48:57.439049514Z,-0.061052,-0.229843,9.704298,-0.003063,-0.009454,-0.015446
2025-08-05T19:48:57.478761833Z,-0.050278,-0.213084,9.694721,-0.001465,-0.007989,-0.014381
2025-08-05T19:48:57.498655103Z,-0.037110,-0.215478,9.709086,-0.002264,-0.007856,-0.013316
2025-08-05T19:48:57.518513788Z,-0.034716,-0.226252,9.699510,-0.002397,-0.008389,-0.014381
2025-08-05T19:48:57.538432214Z,-0.046687,-0.228646,9.704298,-0.002796,-0.007590,-0.014381
2025-08-05T19:48:57.558299963Z,-0.056264,-0.226252,9.713875,-0.003728,-0.009188,-0.014381
2025-08-05T19:48:57.578142659Z,-0.040701,-0.227449,9.704298,-0.001465,-0.007856,-0.014381
2025-08-05T19:48:57.598027022Z,-0.065841,-0.213084,9.699510,-0.003063,-0.009321,-0.014381
2025-08-05T19:48:57.637758352Z,-0.040701,-0.216675,9.699510,-0.002796,-0.007590,-0.014381
2025-08-05T19:48:57.657615892Z,-0.034716,-0.215478,9.694721,-0.002929,-0.008788,-0.014381
2025-08-05T19:48:57.677589214Z,-0.049081,-0.220267,9.699510,-0.002397,-0.007723,-0.014381
2025-08-05T19:48:57.697377899Z,-0.053870,-0.226252,9.706094,-0.002530,-0.008256,-0.013848
2025-08-05T19:48:57.717244085Z,-0.049081,-0.219069,9.706094,-0.002663,-0.007989,-0.013848
2025-08-05T19:48:57.737099645Z,-0.052672,-0.211887,9.696517,-0.003063,-0.008788,-0.013848
2025-08-05T19:48:57.796757266Z,-0.063446,-0.239420,9.706094,-0.002929,-0.008522,-0.014914
2025-08-05T19:48:57.816641108Z,-0.051475,-0.229843,9.710882,-0.002530,-0.008256,-0.014914
2025-08-05T19:48:57.836449168Z,-0.051475,-0.221464,9.696517,-0.002264,-0.008256,-0.013848
2025-08-05T19:48:57.856508377Z,-0.056264,-0.226252,9.706094,-0.002264,-0.007856,-0.013848
2025-08-05T19:48:57.876413887Z,-0.050278,-0.217872,9.701305,-0.002397,-0.008522,-0.013848
2025-08-05T19:48:57.896264187Z,-0.046687,-0.208296,9.710882,-0.002530,-0.007590,-0.013848
2025-08-05T19:48:57.955669773Z,-0.068235,-0.228646,9.691729,-0.002530,-0.008256,-0.014914
2025-08-05T19:48:57.975558355Z,-0.067038,-0.226252,9.696517,-0.002397,-0.007590,-0.013848
2025-08-05T19:48:57.995420478Z,-0.053870,-0.213084,9.691729,-0.001997,-0.009587,-0.014914
2025-08-05T19:48:58.015281195Z,-0.028730,-0.221464,9.720459,-0.001065,-0.007989,-0.013848
2025-08-05T19:48:58.035137277Z,-0.044293,-0.215478,9.710882,-0.002796,-0.008922,-0.013848
2025-08-05T19:48:58.055044192Z,-0.038307,-0.197522,9.710882,-0.002530,-0.007590,-0.013848
2025-08-05T19:48:58.075132464Z,-0.041899,-0.227449,9.720459,-0.002397,-0.007856,-0.013848
2025-08-05T19:48:58.094794793Z,-0.047884,-0.228646,9.706094,-0.002264,-0.008522,-0.014914
2025-08-05T19:48:58.114655666Z,-0.055067,-0.232238,9.691729,-0.001731,-0.008256,-0.013848
2025-08-05T19:48:58.134514196Z,-0.050278,-0.231040,9.701305,-0.003063,-0.009321,-0.013848
2025-08-05T19:48:58.154409444Z,-0.044293,-0.204704,9.706094,-0.001997,-0.009321,-0.013848
2025-08-05T19:48:58.174326204Z,-0.047884,-0.199916,9.710882,-0.001065,-0.007590,-0.013848
2025-08-05T19:48:58.194407757Z,-0.039504,-0.207098,9.706094,-0.004128,-0.008922,-0.013848
2025-08-05T19:48:58.214261494Z,-0.070629,-0.226252,9.686940,-0.003862,-0.008788,-0.013848
2025-08-05T19:48:58.234068305Z,-0.049081,-0.229843,9.706094,-0.002663,-0.008522,-0.014914
2025-08-05T19:48:58.253738238Z,-0.058658,-0.239420,9.715371,-0.001065,-0.007989,-0.014381
2025-08-05T19:48:58.273611611Z,-0.056264,-0.217872,9.705794,-0.002663,-0.009321,-0.014381
2025-08-05T19:48:58.293539725Z,-0.045490,-0.205901,9.696218,-0.003063,-0.009188,-0.014381
2025-08-05T19:48:58.313361379Z,-0.029928,-0.228646,9.696218,-0.002131,-0.007590,-0.014381
2025-08-05T19:48:58.333247357Z,-0.034716,-0.217872,9.701006,-0.001731,-0.008522,-0.015446
2025-08-05T19:48:58.353117188Z,-0.055067,-0.208296,9.710882,-0.002397,-0.007989,-0.013848
2025-08-05T19:48:58.412705121Z,-0.052672,-0.207098,9.682152,-0.001332,-0.007856,-0.013848
2025-08-05T19:48:58.432590734Z,-0.037110,-0.227449,9.682152,-0.001731,-0.009321,-0.013848
2025-08-05T19:48:58.452528743Z,-0.029928,-0.213084,9.701305,-0.001065,-0.008123,-0.014914
2025-08-05T19:48:58.472306907Z,-0.044293,-0.215478,9.706094,-0.001598,-0.008788,-0.013848
2025-08-05T19:48:58.492188458Z,-0.045490,-0.215478,9.710882,-0.003329,-0.007590,-0.013848
2025-08-05T19:48:58.512076154Z,-0.065841,-0.244209,9.706094,-0.003063,-0.009188,-0.013848
2025-08-05T19:48:58.571702368Z,-0.083797,-0.232238,9.691729,-0.002397,-0.007590,-0.013848
2025-08-05T19:48:58.591557773Z,-0.059855,-0.198719,9.701305,-0.003063,-0.008922,-0.013848
2025-08-05T19:48:58.611412969Z,-0.043096,-0.198719,9.701305,-0.002397,-0.007590,-0.013848
2025-08-05T19:48:58.631257175Z,-0.052672,-0.225055,9.691729,-0.003063,-0.008922,-0.013848
2025-08-05T19:48:58.651166174Z,-0.040701,-0.223858,9.710882,-0.001198,-0.007989,-0.013848
2025-08-05T19:48:58.671019339Z,-0.050278,-0.221464,9.691729,-0.001332,-0.007590,-0.013848
2025-08-05T19:48:58.711051662Z,-0.040701,-0.201113,9.706094,-0.001065,-0.008389,-0.013848
2025-08-05T19:48:58.730838420Z,-0.046687,-0.202310,9.706094,-0.003063,-0.009188,-0.013848
2025-08-05T19:48:58.750564552Z,-0.057461,-0.223858,9.706094,-0.002530,-0.007590,-0.013848
2025-08-05T19:48:58.770450842Z,-0.051475,-0.234632,9.710882,-0.002264,-0.007590,-0.013848
2025-08-05T19:48:58.790262912Z,-0.052672,-0.221464,9.701305,-0.003995,-0.008922,-0.013848
2025-08-05T19:48:58.810128942Z,-0.046687,-0.221464,9.710882,-0.001465,-0.008123,-0.014914
2025-08-05T19:48:58.869721978Z,-0.038307,-0.202310,9.715671,-0.002796,-0.007590,-0.013848
2025-08-05T19:48:58.889611758Z,-0.055067,-0.211887,9.715671,-0.003595,-0.008123,-0.013848
2025-08-05T19:48:58.909471121Z,-0.045490,-0.216675,9.715671,-0.002929,-0.007989,-0.013848
2025-08-05T19:48:58.929321942Z,-0.053870,-0.209493,9.706094,-0.002929,-0.008922,-0.013848
2025-08-05T19:48:58.949185211Z,-0.040701,-0.217872,9.706094,-0.001997,-0.008788,-0.013848
2025-08-05T19:48:58.969079210Z,-0.046687,-0.228646,9.701305,-0.004128,-0.009188,-0.013848
2025-08-05T19:48:59.028687298Z,-0.051475,-0.222661,9.706094,-0.002929,-0.007856,-0.013848
2025-08-05T19:48:59.048562130Z,-0.052672,-0.199916,9.720459,-0.002796,-0.007856,-0.013848
2025-08-05T19:48:59.068450400Z,-0.055067,-0.214281,9.710882,-0.002663,-0.007856,-0.013848
2025-08-05T19:48:59.088317158Z,-0.051475,-0.207098,9.710882,-0.001465,-0.007590,-0.012783
2025-08-05T19:48:59.108186938Z,-0.023942,-0.214281,9.701305,-0.002530,-0.008123,-0.013848
2025-08-05T19:48:59.128268960Z,-0.040701,-0.216675,9.706094,-0.002663,-0.008389,-0.014914
2025-08-05T19:48:59.168036800Z,-0.064643,-0.237026,9.701305,-0.001065,-0.007723,-0.013848
2025-08-05T19:48:59.187853402Z,-0.049081,-0.213084,9.706393,-0.001465,-0.007723,-0.013848
2025-08-05T19:48:59.207827142Z,-0.028730,-0.211887,9.711182,-0.002397,-0.007723,-0.013848
2025-08-05T19:48:59.227380459Z,-0.045490,-0.186748,9.720758,-0.002929,-0.007856,-0.013848
2025-08-05T19:48:59.247289926Z,-0.033519,-0.205901,9.701605,-0.003595,-0.008123,-0.013848
2025-08-05T19:48:59.267155539Z,-0.057461,-0.214281,9.687240,-0.002530,-0.008256,-0.013848
2025-08-05T19:48:59.287002714Z,-0.065841,-0.215478,9.711182,-0.001465,-0.007856,-0.013848
2025-08-05T19:48:59.307158539Z,-0.043096,-0.202310,9.711182,-0.002796,-0.007723,-0.013848
2025-08-05T19:48:59.326898578Z,-0.056264,-0.238223,9.711780,-0.003995,-0.008522,-0.015846
2025-08-05T19:48:59.346690596Z,-0.047884,-0.221464,9.711780,-0.002397,-0.008389,-0.014781
2025-08-05T19:48:59.366534021Z,-0.045490,-0.246603,9.697414,-0.002663,-0.007856,-0.014781
2025-08-05T19:48:59.386643595Z,-0.044293,-0.215478,9.697414,-0.001997,-0.008922,-0.014781
2025-08-05T19:48:59.406435301Z,-0.051475,-0.201113,9.706991,-0.003862,-0.008123,-0.014781
2025-08-05T19:48:59.426292424Z,-0.053870,-0.220267,9.706991,-0.001065,-0.006658,-0.014781
2025-08-05T19:48:59.505811335Z,-0.038307,-0.192733,9.711780,-0.001598,-0.009321,-0.014781
2025-08-05T19:48:59.525435278Z,-0.061052,-0.204704,9.702203,-0.001731,-0.007723,-0.014781
2025-08-05T19:48:59.545344485Z,-0.041899,-0.216675,9.687838,-0.002131,-0.008389,-0.015846
2025-08-05T19:48:59.565254057Z,-0.041899,-0.217872,9.711780,-0.001198,-0.008389,-0.014781
2025-08-05T19:48:59.585093159Z,-0.049081,-0.221464,9.697414,-0.002264,-0.007590,-0.013715
2025-08-05T19:48:59.644695258Z,-0.065841,-0.228646,9.697414,-0.001065,-0.007723,-0.014781
2025-08-05T19:48:59.664576288Z,-0.038307,-0.221464,9.711780,-0.001997,-0.009321,-0.015846
2025-08-05T19:48:59.684434400Z,-0.035913,-0.192733,9.711780,-0.001731,-0.007590,-0.014781
2025-08-05T19:48:59.704294336Z,-0.039504,-0.210690,9.697414,-0.001598,-0.007989,-0.014781
2025-08-05T19:48:59.724160209Z,-0.049081,-0.221464,9.711780,-0.001598,-0.007723,-0.014781
2025-08-05T19:48:59.744021916Z,-0.051475,-0.229843,9.687838,-0.002929,-0.007723,-0.014781
2025-08-05T19:48:59.783803924Z,-0.045490,-0.219069,9.706991,-0.001598,-0.007856,-0.014781
2025-08-05T19:48:59.803650526Z,-0.058658,-0.223858,9.721356,-0.003329,-0.007191,-0.014781
2025-08-05T19:48:59.823496347Z,-0.055067,-0.208296,9.730933,-0.005859,-0.007856,-0.014781
2025-08-05T19:48:59.843393679Z,-0.052672,-0.225055,9.697414,-0.004794,-0.008389,-0.014781
2025-08-05T19:48:59.863256375Z,-0.058658,-0.217872,9.711780,-0.002663,-0.007856,-0.014781
2025-08-05T19:48:59.883170738Z,-0.058658,-0.229843,9.702203,-0.002131,-0.008256,-0.014781
2025-08-05T19:48:59.942757837Z,-0.053870,-0.193930,9.721356,-0.002397,-0.007856,-0.014781
2025-08-05T19:48:59.962639440Z,-0.043096,-0.204704,9.716568,-0.002131,-0.008123,-0.014781
2025-08-05T19:48:59.982482448Z,-0.046687,-0.228646,9.702203,-0.001997,-0.009454,-0.014781
2025-08-05T19:49:00.002341707Z,-0.057461,-0.213084,9.711780,-0.002397,-0.007590,-0.014781
2025-08-05T19:49:00.022196122Z,-0.044293,-0.222661,9.706991,-0.002796,-0.007723,-0.014781
2025-08-05T19:49:00.042112881Z,-0.046687,-0.214281,9.711780,-0.001997,-0.009321,-0.015846
2025-08-05T19:49:00.101708157Z,-0.075417,-0.214281,9.711780,-0.001598,-0.008522,-0.015846
2025-08-05T19:49:00.121613198Z,-0.064643,-0.209493,9.716568,-0.002530,-0.007723,-0.014781
2025-08-05T19:49:00.141439800Z,-0.049081,-0.209493,9.702203,-0.002131,-0.008389,-0.015846
2025-08-05T19:49:00.161312548Z,-0.043096,-0.235829,9.706991,-0.003595,-0.007989,-0.015846
2025-08-05T19:49:00.181224307Z,-0.056264,-0.243011,9.716568,-0.002264,-0.007723,-0.013715
2025-08-05T19:49:00.201058826Z,-0.051475,-0.221464,9.711780,-0.001598,-0.008389,-0.014781
2025-08-05T19:49:00.260673529Z,-0.023942,-0.211887,9.711780,-0.001465,-0.008389,-0.014781
2025-08-05T19:49:00.280540340Z,-0.052672,-0.213084,9.711780,-0.003728,-0.007856,-0.014781
2025-08-05T19:49:00.300412359Z,-0.052672,-0.202310,9.726145,-0.002796,-0.007590,-0.014781
2025-08-05T19:49:00.320280368Z,-0.056264,-0.211887,9.706991,-0.002131,-0.006525,-0.014781
2025-08-05T19:49:00.340135616Z,-0.053870,-0.231040,9.702203,-0.001332,-0.008123,-0.014781
2025-08-05T19:49:00.360023209Z,-0.028730,-0.215478,9.702203,-0.001864,-0.009055,-0.014781
2025-08-05T19:49:00.399768028Z,-0.043096,-0.211887,9.726145,-0.001065,-0.008389,-0.014781
2025-08-05T19:49:00.419615360Z,-0.051475,-0.228646,9.716568,-0.003862,-0.007856,-0.014781
2025-08-05T19:49:00.439491233Z,-0.058658,-0.216675,9.697414,-0.002131,-0.007057,-0.014781
2025-08-05T19:49:00.459364815Z,-0.053870,-0.209493,9.692626,-0.001997,-0.007590,-0.014781
2025-08-05T19:49:00.479254699Z,-0.029928,-0.211887,9.735722,-0.001332,-0.007856,-0.014781
2025-08-05T19:49:00.499161562Z,-0.032322,-0.193930,9.711780,-0.004128,-0.009055,-0.014781
2025-08-05T19:49:00.578588649Z,-0.058658,-0.223858,9.726145,-0.000666,-0.008389,-0.014781
2025-08-05T19:49:00.598482960Z,-0.064643,-0.193930,9.735722,-0.002397,-0.008522,-0.015846
2025-08-05T19:49:00.618333625Z,-0.051475,-0.195127,9.716568,-0.002397,-0.008522,-0.015846
2025-08-05T19:49:00.638223665Z,-0.031125,-0.228646,9.721356,-0.002397,-0.008522,-0.014781
2025-08-05T19:49:00.658109643Z,-0.046687,-0.252588,9.711780,-0.002397,-0.007989,-0.014781
2025-08-05T19:49:00.717800597Z,-0.051475,-0.198719,9.711780,-0.002264,-0.007989,-0.014781
2025-08-05T19:49:00.737728346Z,-0.049081,-0.166397,9.716568,-0.003728,-0.008256,-0.014781
2025-08-05T19:49:00.757650574Z,-0.033519,-0.192733,9.721356,-0.003329,-0.008522,-0.015846
2025-08-05T19:49:00.777297122Z,-0.023942,-0.226252,9.706991,-0.003462,-0.007723,-0.014781
2025-08-05T19:49:00.797214402Z,-0.065841,-0.256180,9.702203,-0.004128,-0.008922,-0.013715
2025-08-05T19:49:00.817029077Z,-0.055067,-0.258574,9.706991,-0.001198,-0.007590,-0.014781
2025-08-05T19:49:00.856786813Z,-0.023942,-0.205901,9.716568,-0.001997,-0.009188,-0.014781
2025-08-05T19:49:00.876674458Z,-0.038307,-0.187945,9.721356,-0.001997,-0.007723,-0.014781
2025-08-05T19:49:00.896531060Z,-0.052672,-0.222661,9.716568,-0.003862,-0.008522,-0.015846
2025-08-05T19:49:00.916378027Z,-0.051475,-0.226252,9.697414,-0.003462,-0.008389,-0.014781
2025-08-05T19:49:00.936243483Z,-0.052672,-0.237026,9.726145,-0.003329,-0.007723,-0.014781
2025-08-05T19:49:00.956161441Z,-0.067038,-0.217872,9.706991,-0.002397,-0.007989,-0.014781
2025-08-05T19:49:00.976026220Z,-0.064643,-0.215478,9.706991,-0.003063,-0.009587,-0.015846
2025-08-05T19:49:01.015821770Z,-0.037110,-0.221464,9.702203,-0.002397,-0.008123,-0.014781
2025-08-05T19:49:01.055473046Z,-0.055067,-0.237026,9.688437,-0.001864,-0.009321,-0.015446
2025-08-05T19:49:01.075368399Z,-0.062249,-0.222661,9.707590,-0.001465,-0.007989,-0.014381
2025-08-05T19:49:01.095246043Z,-0.051475,-0.215478,9.717167,-0.001065,-0.008256,-0.014381
2025-08-05T19:49:01.115119729Z,-0.052672,-0.209493,9.717167,-0.001198,-0.007590,-0.014381
2025-08-05T19:49:01.194799423Z,-0.044293,-0.227449,9.712379,-0.003329,-0.008123,-0.014381
2025-08-05T19:49:01.214439721Z,-0.049081,-0.220267,9.698013,-0.002929,-0.007723,-0.014381
2025-08-05T19:49:01.234427991Z,-0.044293,-0.225055,9.698013,-0.002131,-0.007989,-0.014381
2025-08-05T19:49:01.254393814Z,-0.031125,-0.225055,9.698013,-0.001332,-0.007989,-0.014381
2025-08-05T19:49:01.274287135Z,-0.039504,-0.214281,9.712379,-0.002264,-0.008522,-0.014381
2025-08-05T19:49:01.333651367Z,-0.047884,-0.225055,9.717167,-0.001198,-0.008256,-0.014381
2025-08-05T19:49:01.353548907Z,-0.035913,-0.207098,9.712379,-0.002131,-0.007723,-0.014381
2025-08-05T19:49:01.373414676Z,-0.041899,-0.217872,9.707590,-0.003862,-0.007723,-0.014381
2025-08-05T19:49:01.393369040Z,-0.064643,-0.227449,9.717167,-0.002131,-0.006658,-0.013316
2025-08-05T19:49:01.413140485Z,-0.073023,-0.228646,9.693225,-0.002530,-0.008256,-0.015446
2025-08-05T19:49:01.433000942Z,-0.052672,-0.226252,9.712379,-0.001198,-0.007989,-0.014381
2025-08-05T19:49:01.492619083Z,-0.040701,-0.215478,9.702802,-0.003063,-0.008389,-0.014381
2025-08-05T19:49:01.512497040Z,-0.051475,-0.215478,9.712379,-0.002663,-0.008522,-0.014381
2025-08-05T19:49:01.532350517Z,-0.058658,-0.197522,9.712379,-0.002131,-0.007989,-0.014381
2025-08-05T19:49:01.552244307Z,-0.045490,-0.222661,9.712379,-0.003063,-0.008788,-0.014381
2025-08-05T19:49:01.572143671Z,-0.063446,-0.207098,9.712379,-0.001465,-0.008256,-0.015446
2025-08-05T19:49:01.592000065Z,-0.052672,-0.222661,9.698013,-0.001598,-0.007590,-0.014381
2025-08-05T19:49:01.631750718Z,-0.050278,-0.225055,9.707590,-0.002131,-0.008256,-0.014381
2025-08-05T19:49:01.651612060Z,-0.056264,-0.232238,9.707590,-0.001065,-0.008522,-0.015446
2025-08-05T19:49:01.671473506Z,-0.050278,-0.217872,9.702802,-0.002530,-0.008256,-0.015446
2025-08-05T19:49:01.691370317Z,-0.051475,-0.214281,9.721955,-0.002264,-0.007590,-0.014381
2025-08-05T19:49:01.711214627Z,-0.038307,-0.220267,9.712379,-0.002530,-0.008522,-0.015446
2025-08-05T19:49:01.731087845Z,-0.041899,-0.222661,9.707590,-0.002663,-0.008522,-0.015446
2025-08-05T19:49:01.790706819Z,-0.045490,-0.211887,9.712379,-0.003063,-0.008256,-0.015446
2025-08-05T19:49:01.810560609Z,-0.055067,-0.214281,9.707590,-0.001997,-0.008522,-0.014381
2025-08-05T19:49:01.830433305Z,-0.033519,-0.217872,9.721955,-0.002663,-0.007723,-0.013316
2025-08-05T19:49:01.850307720Z,-0.034716,-0.222661,9.702802,-0.002929,-0.008389,-0.014381
2025-08-05T19:49:01.870203646Z,-0.062249,-0.220267,9.702802,-0.002796,-0.007723,-0.013316
2025-08-05T19:49:01.890072175Z,-0.051475,-0.215478,9.721955,-0.001465,-0.007856,-0.014381
2025-08-05T19:49:01.929781630Z,-0.056264,-0.225055,9.702802,-0.003728,-0.007590,-0.014381
2025-08-05T19:49:01.949671462Z,-0.034716,-0.201113,9.712379,-0.001332,-0.007856,-0.014381
2025-08-05T19:49:01.969546606Z,-0.051475,-0.219069,9.712379,-0.003196,-0.008256,-0.014381
2025-08-05T19:49:01.989472793Z,-0.045490,-0.203507,9.712379,-0.002929,-0.007989,-0.014381
2025-08-05T19:49:02.009276686Z,-0.046687,-0.227449,9.707590,-0.002530,-0.009587,-0.015446
2025-08-05T19:49:02.029145632Z,-0.053870,-0.221464,9.717167,-0.001997,-0.007723,-0.014381
2025-08-05T19:49:02.049036089Z,-0.051475,-0.211887,9.702802,-0.002264,-0.007723,-0.014381
2025-08-05T19:49:02.088791222Z,-0.045490,-0.222661,9.707590,-0.002530,-0.008256,-0.014381
2025-08-05T19:49:02.108622303Z,-0.061052,-0.231040,9.712379,-0.002530,-0.007856,-0.014381
2025-08-05T19:49:02.128488228Z,-0.053870,-0.233435,9.712379,-0.001598,-0.008522,-0.015446
2025-08-05T19:49:02.148406133Z,-0.047884,-0.215478,9.712379,-0.001065,-0.007989,-0.014381
2025-08-05T19:49:02.168231329Z,-0.040701,-0.217872,9.712379,-0.002131,-0.007989,-0.014381
2025-08-05T19:49:02.188122619Z,-0.053870,-0.237026,9.707590,-0.003063,-0.008389,-0.015446
2025-08-05T19:49:02.247766333Z,-0.057461,-0.220267,9.707590,-0.001997,-0.008788,-0.014381
2025-08-05T19:49:02.267585279Z,-0.053870,-0.208296,9.712379,-0.001332,-0.007989,-0.014381
2025-08-05T19:49:02.287471830Z,-0.045490,-0.226252,9.707590,-0.003063,-0.007856,-0.014381
2025-08-05T19:49:02.307348172Z,-0.031125,-0.221464,9.702802,-0.003462,-0.007723,-0.014381
2025-08-05T19:49:02.327387433Z,-0.033519,-0.228646,9.717167,-0.003329,-0.007457,-0.015446
2025-08-05T19:49:02.347286379Z,-0.056264,-0.222661,9.698013,-0.002663,-0.008123,-0.014381
2025-08-05T19:49:02.406667851Z,-0.046687,-0.238223,9.707590,-0.002264,-0.008123,-0.014381
2025-08-05T19:49:02.426555026Z,-0.035913,-0.233435,9.693225,-0.003063,-0.009321,-0.014381
2025-08-05T19:49:02.446476265Z,-0.049081,-0.234632,9.707590,-0.001198,-0.007989,-0.014381
2025-08-05T19:49:02.466324117Z,-0.058658,-0.244209,9.717167,-0.003995,-0.007856,-0.014381
2025-08-05T19:49:02.486139261Z,-0.056264,-0.221464,9.707590,-0.002131,-0.008256,-0.014381
2025-08-05T19:49:02.506036905Z,-0.049081,-0.222661,9.702802,-0.002264,-0.007989,-0.014381
2025-08-05T19:49:02.565683171Z,-0.056264,-0.204704,9.712379,-0.002663,-0.008389,-0.015446
2025-08-05T19:49:02.585525346Z,-0.051475,-0.217872,9.712379,-0.002663,-0.007590,-0.014381
2025-08-05T19:49:02.605394032Z,-0.038307,-0.209493,9.721955,-0.002796,-0.007590,-0.014381
2025-08-05T19:49:02.625269177Z,-0.053870,-0.205901,9.717167,-0.002397,-0.007723,-0.014381
2025-08-05T19:49:02.645123331Z,-0.052672,-0.223858,9.702802,-0.003595,-0.008522,-0.015446
2025-08-05T19:49:02.665013319Z,-0.046687,-0.229843,9.712379,-0.003063,-0.008922,-0.014381
2025-08-05T19:49:02.704748816Z,-0.056264,-0.213084,9.717167,-0.002397,-0.008256,-0.014381
2025-08-05T19:49:02.724605783Z,-0.063446,-0.219069,9.707590,-0.003196,-0.008522,-0.015446
2025-08-05T19:49:02.744494990Z,-0.058658,-0.216675,9.707590,-0.001598,-0.008256,-0.015446
2025-08-05T19:49:02.764341488Z,-0.051475,-0.223858,9.698013,-0.003595,-0.007590,-0.014381
2025-08-05T19:49:02.784242674Z,-0.040701,-0.221464,9.707590,-0.002264,-0.008522,-0.015446
2025-08-05T19:49:02.804072505Z,-0.050278,-0.209493,9.702802,-0.002530,-0.008256,-0.015446
2025-08-05T19:49:02.863706688Z,-0.045490,-0.211887,9.707590,-0.002397,-0.007723,-0.014381
2025-08-05T19:49:02.883566519Z,-0.033519,-0.223858,9.707590,-0.002663,-0.009454,-0.014381
2025-08-05T19:49:02.903453539Z,-0.056264,-0.220267,9.707590,-0.001731,-0.007989,-0.014381
2025-08-05T19:49:02.923325402Z,-0.055067,-0.207098,9.702802,-0.002663,-0.008522,-0.015446
2025-08-05T19:49:02.943217057Z,-0.055067,-0.208296,9.717167,-0.002397,-0.007856,-0.014381
2025-08-05T19:49:02.963102826Z,-0.061052,-0.228646,9.705794,-0.002264,-0.008522,-0.013848
2025-08-05T19:49:03.022666383Z,-0.049081,-0.216675,9.720160,-0.002530,-0.008522,-0.014914
2025-08-05T19:49:03.042566267Z,-0.039504,-0.202310,9.715371,-0.001731,-0.007590,-0.013848
2025-08-05T19:49:03.062643549Z,-0.053870,-0.213084,9.710583,-0.003462,-0.008123,-0.013848
2025-08-05T19:49:03.081497691Z,-0.041899,-0.226252,9.724948,-0.002264,-0.007590,-0.013848
2025-08-05T19:49:03.102149303Z,-0.029928,-0.214281,9.715371,-0.003063,-0.008389,-0.013848
2025-08-05T19:49:03.122009552Z,-0.045490,-0.222661,9.710583,-0.004128,-0.009188,-0.013848
2025-08-05T19:49:03.142016833Z,-0.055067,-0.219069,9.710583,-0.002131,-0.008123,-0.013848
2025-08-05T19:49:03.161773434Z,-0.065841,-0.210690,9.715371,-0.003063,-0.009055,-0.013848
2025-08-05T19:49:03.181726548Z,-0.046687,-0.216675,9.710583,-0.002397,-0.008123,-0.013848
2025-08-05T19:49:03.201520285Z,-0.041899,-0.223858,9.710583,-0.001198,-0.008256,-0.013848
2025-08-05T19:49:03.221385898Z,-0.055067,-0.221464,9.720160,-0.002264,-0.008389,-0.014914
2025-08-05T19:49:03.241244323Z,-0.053870,-0.217872,9.705794,-0.001997,-0.008788,-0.013848
2025-08-05T19:49:03.261115301Z,-0.051475,-0.220267,9.715371,-0.001598,-0.007590,-0.013848
2025-08-05T19:49:03.281013518Z,-0.055067,-0.214281,9.701006,-0.002131,-0.008256,-0.013848
2025-08-05T19:49:03.320711514Z,-0.045490,-0.216675,9.720160,-0.002663,-0.007723,-0.013848
2025-08-05T19:49:03.340600929Z,-0.034716,-0.211887,9.710583,-0.001864,-0.008256,-0.013848
2025-08-05T19:49:03.360500970Z,-0.067038,-0.233435,9.710583,-0.002397,-0.008256,-0.013848
2025-08-05T19:49:03.380336114Z,-0.071826,-0.216675,9.705794,-0.001997,-0.009587,-0.014914
2025-08-05T19:49:03.400204122Z,-0.051475,-0.221464,9.720160,-0.001731,-0.007856,-0.013848
2025-08-05T19:49:03.420058641Z,-0.028730,-0.225055,9.696218,-0.002663,-0.007723,-0.013848
2025-08-05T19:49:03.499786304Z,-0.052672,-0.204704,9.710583,-0.002131,-0.007856,-0.013848
2025-08-05T19:49:03.519450248Z,-0.040701,-0.220267,9.715371,-0.003063,-0.009321,-0.013848
2025-08-05T19:49:03.539337476Z,-0.059855,-0.226252,9.701006,-0.001332,-0.008389,-0.014914
2025-08-05T19:49:03.559244704Z,-0.051475,-0.226252,9.705794,-0.002663,-0.008522,-0.014914
2025-08-05T19:49:03.579057816Z,-0.038307,-0.203507,9.720160,-0.002663,-0.007856,-0.013848
2025-08-05T19:49:03.638651425Z,-0.044293,-0.214281,9.705794,-0.002796,-0.007856,-0.013848
2025-08-05T19:49:03.658527091Z,-0.056264,-0.214281,9.705794,-0.003196,-0.007856,-0.013848
2025-08-05T19:49:03.678399370Z,-0.047884,-0.209493,9.720160,-0.002663,-0.007989,-0.013848
2025-08-05T19:49:03.698275973Z,-0.045490,-0.220267,9.715371,-0.001997,-0.008922,-0.013848
2025-08-05T19:49:03.718116325Z,-0.026336,-0.219069,9.710583,-0.003063,-0.007856,-0.012783
2025-08-05T19:49:03.738046522Z,-0.059855,-0.213084,9.710583,-0.002929,-0.008256,-0.013848
2025-08-05T19:49:03.797612527Z,-0.059855,-0.231040,9.696218,-0.002663,-0.007723,-0.013848
2025-08-05T19:49:03.817472567Z,-0.043096,-0.207098,9.720160,-0.002796,-0.007989,-0.013848
2025-08-05T19:49:03.837371461Z,-0.057461,-0.208296,9.724948,-0.002530,-0.007723,-0.013848
2025-08-05T19:49:03.857219522Z,-0.028730,-0.187945,9.715371,-0.001598,-0.007856,-0.013848
2025-08-05T19:49:03.877121125Z,-0.040701,-0.231040,9.715371,-0.001198,-0.008389,-0.014914
2025-08-05T19:49:03.956782120Z,-0.052672,-0.215478,9.705794,-0.001065,-0.008389,-0.014914
2025-08-05T19:49:03.976531430Z,-0.039504,-0.223858,9.705794,-0.002397,-0.007856,-0.014914
2025-08-05T19:49:03.996324802Z,-0.038307,-0.217872,9.715371,-0.003462,-0.007723,-0.013848
2025-08-05T19:49:04.016229738Z,-0.039504,-0.221464,9.715371,-0.003862,-0.007590,-0.013848
2025-08-05T19:49:04.036064674Z,-0.058658,-0.217872,9.720160,-0.002131,-0.008522,-0.014914
2025-08-05T19:49:04.095679481Z,-0.041899,-0.211887,9.720160,-0.002530,-0.007723,-0.013848
2025-08-05T19:49:04.115544886Z,-0.038307,-0.198719,9.705794,-0.002796,-0.007989,-0.013848
2025-08-05T19:49:04.135446905Z,-0.052672,-0.203507,9.701006,-0.002663,-0.007590,-0.013848
2025-08-05T19:49:04.155286164Z,-0.039504,-0.235829,9.715371,-0.001465,-0.008389,-0.013848
2025-08-05T19:49:04.175223236Z,-0.059855,-0.211887,9.710583,-0.002663,-0.008389,-0.014914
2025-08-05T19:49:04.195026140Z,-0.045490,-0.214281,9.705794,-0.002131,-0.008123,-0.013848
2025-08-05T19:49:04.254690167Z,-0.046687,-0.215478,9.710583,-0.001731,-0.008522,-0.014914
2025-08-05T19:49:04.274509268Z,-0.056264,-0.213084,9.709984,-0.002264,-0.007324,-0.014381
2025-08-05T19:49:04.294390142Z,-0.045490,-0.223858,9.709984,-0.002663,-0.007723,-0.014381
2025-08-05T19:49:04.314236900Z,-0.056264,-0.225055,9.700407,-0.003063,-0.009454,-0.014381
2025-08-05T19:49:04.334133659Z,-0.051475,-0.220267,9.709984,-0.002929,-0.009587,-0.015446
2025-08-05T19:49:04.354024585Z,-0.043096,-0.217872,9.700407,-0.002530,-0.007856,-0.014381
2025-08-05T19:49:04.393767842Z,-0.047884,-0.222661,9.719561,-0.002796,-0.008123,-0.014381
2025-08-05T19:49:04.413614444Z,-0.044293,-0.211887,9.705195,-0.002397,-0.007590,-0.014381
2025-08-05T19:49:04.433570840Z,-0.055067,-0.215478,9.709984,-0.001198,-0.008123,-0.014381
2025-08-05T19:49:04.453372389Z,-0.034716,-0.197522,9.724349,-0.001997,-0.009188,-0.014381
2025-08-05T19:49:04.473224460Z,-0.051475,-0.207098,9.719561,-0.002663,-0.008389,-0.015446
2025-08-05T19:49:04.493095802Z,-0.056264,-0.216675,9.714772,-0.002929,-0.007856,-0.014381
2025-08-05T19:49:04.552681547Z,-0.061052,-0.217872,9.709984,-0.002530,-0.007989,-0.014381
2025-08-05T19:49:04.572688047Z,-0.056264,-0.228646,9.709984,-0.002929,-0.009321,-0.014381
2025-08-05T19:49:04.592445534Z,-0.046687,-0.223858,9.700407,-0.003063,-0.009188,-0.014381
2025-08-05T19:49:04.612340366Z,-0.053870,-0.216675,9.705195,-0.002796,-0.008522,-0.014381
2025-08-05T19:49:04.632219677Z,-0.063446,-0.234632,9.700407,-0.002397,-0.008389,-0.015446
2025-08-05T19:49:04.652062373Z,-0.059855,-0.225055,9.705195,-0.002397,-0.008123,-0.014381
2025-08-05T19:49:04.691801359Z,-0.040701,-0.203507,9.705195,-0.002131,-0.006658,-0.014381
2025-08-05T19:49:04.711661086Z,-0.051475,-0.210690,9.717766,-0.002264,-0.007723,-0.014381
2025-08-05T19:49:04.731557741Z,-0.037110,-0.229843,9.698612,-0.002397,-0.008123,-0.014381
2025-08-05T19:49:04.751388666Z,-0.059855,-0.229843,9.703401,-0.002131,-0.008522,-0.015446
2025-08-05T19:49:04.771325426Z,-0.053870,-0.233435,9.708189,-0.002264,-0.008123,-0.014381
2025-08-05T19:49:04.791129007Z,-0.038307,-0.207098,9.698612,-0.002530,-0.007590,-0.014381
2025-08-05T19:49:04.811028786Z,-0.033519,-0.211887,9.703401,-0.002796,-0.007590,-0.014381
2025-08-05T19:49:04.850783763Z,-0.083797,-0.254982,9.636363,-0.000666,-0.008256,-0.014381
2025-08-05T19:49:04.870680522Z,-0.049081,-0.226252,9.717766,-0.001864,-0.009055,-0.014381
2025-08-05T19:49:04.890603323Z,-0.051475,-0.215478,9.712977,-0.002264,-0.007989,-0.014381
2025-08-05T19:49:04.910394768Z,-0.045490,-0.217872,9.717766,-0.002663,-0.008922,-0.014381
2025-08-05T19:49:04.930287933Z,-0.039504,-0.222661,9.717766,-0.002530,-0.008389,-0.015446
2025-08-05T19:49:04.950129431Z,-0.055067,-0.228646,9.708189,-0.002397,-0.007723,-0.014381
2025-08-05T19:49:04.970012805Z,-0.043096,-0.197522,9.746496,-0.001731,-0.007856,-0.014381
