timestamp,accel_x,accel_y,accel_z,gyro_x,gyro_y,gyro_z
1980-01-06T23:13:16.695066235Z,-0.373495,0.283713,9.738416,0.000000,0.000000,-0.000533
1980-01-06T23:13:16.734843631Z,-0.365116,0.286107,9.743802,0.010786,-0.014647,-0.001065
1980-01-06T23:13:16.754828735Z,-0.393846,0.243011,9.791686,0.009721,-0.017710,-0.015979
1980-01-06T23:13:16.774432902Z,-2.121263,-0.294487,9.509171,-0.075501,0.066845,-0.307861
1980-01-06T23:13:16.794446287Z,0.331597,0.822408,9.810840,-0.028762,-0.016245,-0.015979
1980-01-06T23:13:16.814319360Z,-0.501585,0.345962,9.606734,-0.029028,0.007191,-0.040480
1980-01-06T23:13:16.834176756Z,-0.633266,0.208296,9.903615,0.027697,0.008922,-0.050067
1980-01-06T23:13:16.854224412Z,-0.260968,0.196325,9.736021,-0.006125,-0.017444,-0.044741
1980-01-06T23:13:16.873924776Z,-0.316035,0.173580,9.681553,-0.007057,-0.008655,-0.074568
1980-01-06T23:13:16.893762485Z,-0.399832,0.305261,9.777321,0.022104,-0.015180,-0.050067
1980-01-06T23:13:16.913616079Z,-0.257377,0.243011,9.715072,0.007057,-0.017044,-0.075634
1980-01-06T23:13:16.933502016Z,-0.196325,0.341174,9.705495,-0.014514,-0.008256,-0.090547
1980-01-06T23:13:16.953394308Z,-0.173580,0.233435,9.748590,0.014381,-0.022770,-0.079895
1980-01-06T23:13:16.973266808Z,-0.620098,0.254982,9.628881,-0.020773,0.003462,-0.110787
1980-01-06T23:13:16.993106079Z,-0.326809,0.360327,9.850943,0.017311,-0.018109,-0.029827
1980-01-06T23:13:17.032874204Z,-0.062249,0.456095,9.687240,-0.001864,-0.019042,-0.027164
1980-01-06T23:13:17.052706912Z,-0.608127,0.186748,9.720758,-0.008788,-0.006658,-0.026099
1980-01-06T23:13:17.072623474Z,-0.195127,0.237026,9.802161,-0.000399,-0.011185,-0.049535
1980-01-06T23:13:17.092464516Z,-0.480037,0.254982,9.692028,0.016112,-0.007856,-0.038882
1980-01-06T23:13:17.112314360Z,-0.207098,0.275333,9.696816,0.012783,-0.015446,-0.012251
1980-01-06T23:13:17.132178318Z,-0.360327,0.214281,9.675568,0.013316,-0.010653,-0.023436
1980-01-06T23:13:17.152063943Z,-0.193930,0.368707,9.752182,-0.015180,-0.007856,-0.000000
1980-01-06T23:13:17.171914412Z,-0.308852,0.234632,9.742605,0.024767,-0.017976,-0.019175
1980-01-06T23:13:17.191802433Z,-0.441730,0.211887,9.665991,-0.003595,-0.002796,-0.039415
1980-01-06T23:13:17.211656131Z,-0.385466,0.322020,9.814431,0.021971,-0.009987,-0.026632
1980-01-06T23:13:17.231545610Z,-0.345962,0.264559,9.699510,-0.001864,-0.010120,-0.022371
1980-01-06T23:13:17.251395662Z,-0.371101,0.275333,9.747394,-0.000666,-0.007989,-0.021305
1980-01-06T23:13:17.271134933Z,-0.328006,0.514753,9.889250,0.012650,-0.015047,-0.009587
1980-01-06T23:13:17.291148110Z,-0.377087,0.391452,9.807847,0.014914,-0.010386,-0.045806
1980-01-06T23:13:17.330878943Z,-0.292093,0.375890,9.754277,0.011585,-0.014381,-0.018642
1980-01-06T23:13:17.350744620Z,-0.260968,0.326809,9.715970,0.022371,-0.010653,-0.064448
1980-01-06T23:13:17.370619412Z,-0.549469,0.318429,9.783008,-0.000533,-0.005193,-0.030360
1980-01-06T23:13:17.390484568Z,-0.375890,0.276530,9.849147,-0.001198,-0.007723,-0.036219
1980-01-06T23:13:17.410354412Z,-0.392649,0.263362,9.729437,-0.004128,-0.007590,-0.040480
1980-01-06T23:13:17.430213683Z,-0.245406,0.460884,9.762956,0.007057,-0.013316,-0.025566
1980-01-06T23:13:17.450117224Z,-0.260968,0.302867,9.648034,0.039148,-0.019574,-0.040480
1980-01-06T23:13:17.489828683Z,-0.357933,0.314838,9.810840,-0.003728,-0.004794,-0.017044
1980-01-06T23:13:17.509694776Z,-0.257377,0.277727,9.633669,0.019042,-0.011984,-0.053263
1980-01-06T23:13:17.529567797Z,-0.409408,0.339977,9.743802,-0.009188,-0.007457,-0.038349
1980-01-06T23:13:17.549428266Z,-0.325611,0.332794,9.691130,-0.010120,-0.011318,-0.029827
1980-01-06T23:13:17.569297224Z,-0.361524,0.269348,9.733627,0.008256,-0.006924,-0.032491
1980-01-06T23:13:17.589174932Z,-0.313640,0.254982,9.733627,0.021039,-0.009854,-0.032491
1980-01-06T23:13:17.609034203Z,-0.405817,0.202310,9.685743,-0.000000,-0.008256,-0.043143
1980-01-06T23:13:17.628909880Z,-0.387861,0.281319,9.752781,0.002530,-0.014514,-0.027164
1980-01-06T23:13:17.648808787Z,-0.365116,0.372298,9.719262,-0.004794,-0.009188,-0.042078
1980-01-06T23:13:17.668641391Z,-0.404620,0.268151,9.724648,-0.018109,-0.002929,-0.026632
1980-01-06T23:13:17.688522016Z,-0.253785,0.330400,9.758167,0.027297,-0.014914,-0.041545
1980-01-06T23:13:17.708394516Z,-0.465672,0.215478,9.753379,0.014647,-0.012517,-0.027697
1980-01-06T23:13:17.728240974Z,-0.292093,0.368707,9.767744,0.000932,-0.010519,-0.052198
1980-01-06T23:13:17.748119099Z,-0.413000,0.304064,9.681553,-0.000533,-0.008655,-0.070307
1980-01-06T23:13:17.787868526Z,-0.353145,0.399832,9.724648,0.008389,-0.015446,-0.057524
1980-01-06T23:13:17.807737432Z,-0.390255,0.362722,9.710283,-0.015047,-0.001332,-0.057524
1980-01-06T23:13:17.827596547Z,-0.396240,0.174777,9.801263,0.002796,-0.007324,-0.042611
1980-01-06T23:13:17.847472537Z,-0.302867,0.210690,9.695918,-0.011585,-0.008389,-0.041545
1980-01-06T23:13:17.867344047Z,-0.302867,0.433351,9.724648,-0.003196,-0.000399,-0.051133
1980-01-06T23:13:17.887211443Z,-0.252588,0.502782,9.691130,0.025566,-0.008655,-0.053263
1980-01-06T23:13:17.907082589Z,-0.395043,0.390255,9.810840,0.037018,-0.011052,-0.027697
1980-01-06T23:13:17.926952276Z,-0.387861,0.196325,9.724648,-0.020639,-0.004661,-0.037284
1980-01-06T23:13:17.946807484Z,-0.351948,0.266953,9.748590,-0.038749,-0.003595,-0.013848
1980-01-06T23:13:17.966691755Z,-0.299275,0.326809,9.715072,-0.011718,-0.001332,-0.022371
1980-01-06T23:13:17.986554359Z,-0.372298,0.217872,9.777321,0.015446,-0.004128,-0.046872
1980-01-06T23:13:18.006417745Z,-0.301669,0.337582,9.767744,-0.010653,-0.001864,-0.055394
1980-01-06T23:13:18.026298474Z,-0.191536,0.587777,9.585785,-0.003862,-0.015047,0.012783
1980-01-06T23:13:18.046342068Z,-0.392649,0.367510,9.724648,0.026232,-0.007590,-0.036219
1980-01-06T23:13:18.066034464Z,-0.463278,0.282516,9.619304,-0.013183,0.002397,-0.031958
1980-01-06T23:13:18.085915870Z,-0.331597,0.529119,9.873089,0.016911,-0.009055,-0.012783
1980-01-06T23:13:18.105766911Z,-0.353145,0.336385,9.666590,-0.008922,-0.011585,0.001598
1980-01-06T23:13:18.125611703Z,-0.402226,0.241814,9.713276,-0.022637,-0.005726,-0.011718
1980-01-06T23:13:18.145514932Z,-0.336385,0.264559,9.674969,-0.011851,-0.005326,-0.026632
1980-01-06T23:13:18.165366703Z,-0.360327,0.335188,9.789890,0.013982,-0.002530,-0.037284
1980-01-06T23:13:18.185239411Z,-0.362722,0.259771,9.703699,-0.021971,-0.002530,-0.024501
1980-01-06T23:13:18.205106599Z,-0.392649,0.292093,9.751583,-0.007989,-0.008922,-0.011718
1980-01-06T23:13:18.244889672Z,-0.399832,0.349553,9.727641,0.002264,-0.008655,-0.046872
1980-01-06T23:13:18.264755505Z,-0.323217,0.452504,9.746795,0.009321,-0.006392,-0.039415
1980-01-06T23:13:18.284592068Z,-0.387861,0.099359,9.703699,-0.025433,-0.005859,-0.015979
1980-01-06T23:13:18.304461703Z,-0.304064,0.472855,9.813833,0.014115,-0.010919,-0.053263
1980-01-06T23:13:18.324329255Z,-0.468066,0.189142,9.695320,-0.021838,-0.011851,-0.006924
1980-01-06T23:13:18.344189828Z,-0.337582,0.305261,9.776723,-0.010653,-0.002530,-0.064448
1980-01-06T23:13:18.364065870Z,-0.295684,0.307655,9.762358,-0.005193,-0.008655,-0.049535
1980-01-06T23:13:18.403798318Z,-0.362722,0.366313,9.781511,-0.001332,-0.011718,-0.054861
1980-01-06T23:13:18.423657849Z,-0.477643,0.470461,9.671378,0.039015,-0.008123,-0.070840
1980-01-06T23:13:18.443593890Z,-0.494403,0.204704,9.795877,-0.002929,-0.002397,-0.006924
1980-01-06T23:13:18.463404672Z,-0.367510,-0.027533,9.709685,-0.022104,-0.017577,-0.015446
1980-01-06T23:13:18.483311859Z,-0.379481,0.116119,9.843760,-0.034754,0.003862,-0.095341
1980-01-06T23:13:18.503143422Z,-0.336385,0.561440,9.714174,0.002530,-0.006258,-0.080427
1980-01-06T23:13:18.523025661Z,-0.257377,0.708684,9.695021,0.034488,-0.005593,-0.060187
1980-01-06T23:13:18.542878005Z,-0.335188,0.282516,9.680655,-0.014248,-0.008389,-0.005859
1980-01-06T23:13:18.562745036Z,-0.401029,0.123301,9.776423,-0.032757,-0.011718,-0.053796
1980-01-06T23:13:18.582622484Z,-0.235829,0.137667,9.704897,-0.026898,-0.013183,-0.067644
1980-01-06T23:13:18.602491703Z,-0.392649,0.288501,9.810242,0.006924,-0.000399,-0.120907
1980-01-06T23:13:18.622369984Z,-0.439336,0.316035,9.685743,-0.013982,-0.013183,-0.055926
1980-01-06T23:13:18.642242797Z,-0.457293,0.141258,9.714474,-0.013848,-0.014248,-0.033556
1980-01-06T23:13:18.662201234Z,-0.314838,0.448913,9.680955,0.003196,0.000932,-0.094276
1980-01-06T23:13:18.682025557Z,-0.298078,0.287304,9.695320,-0.052065,-0.004128,0.002663
1980-01-06T23:13:18.721672797Z,-0.427365,0.283713,9.728240,0.017710,-0.009721,-0.067112
1980-01-06T23:13:18.741423838Z,-0.223858,0.333991,9.733028,-0.036485,-0.007324,-0.055394
1980-01-06T23:13:18.761595088Z,-0.359130,0.367510,9.665991,-0.025300,-0.009188,-0.041545
1980-01-06T23:13:18.781293942Z,-0.512359,0.553061,9.686341,0.015313,-0.005992,-0.056459
1980-01-06T23:13:18.801198370Z,-0.408211,0.368707,9.758167,0.011851,-0.006525,-0.039415
1980-01-06T23:13:18.821011494Z,-0.341174,0.356736,9.715072,-0.007723,-0.005593,-0.031958
1980-01-06T23:13:18.860756234Z,-0.272939,0.138864,9.643246,-0.030626,-0.003995,-0.021305
1980-01-06T23:13:18.880643005Z,-0.323217,0.184354,9.758167,-0.027963,-0.003862,-0.045806
1980-01-06T23:13:18.900541911Z,-0.357933,0.294487,9.657611,-0.016378,-0.008922,-0.022371
1980-01-06T23:13:18.920366390Z,-0.379481,0.451307,9.791088,0.019441,-0.007457,-0.049535
1980-01-06T23:13:18.940234255Z,-0.253785,0.000000,9.633071,-0.043543,-0.007723,-0.009055
1980-01-06T23:13:18.960115453Z,-0.380678,0.223858,9.767146,-0.029428,-0.008123,-0.041013
1980-01-06T23:13:19.019706911Z,-0.325611,0.122104,9.695918,-0.016911,-0.006525,-0.058589
1980-01-06T23:13:19.039715817Z,-0.351948,0.173580,9.719860,-0.034355,-0.009854,-0.053263
1980-01-06T23:13:19.059460609Z,-0.269348,0.330400,9.810840,0.002530,-0.011318,-0.059655
1980-01-06T23:13:19.079325036Z,-0.650026,0.330400,9.719860,0.001864,-0.007856,-0.084156
1980-01-06T23:13:19.099193578Z,-0.468066,0.241814,9.695918,-0.030094,-0.010120,-0.050067
1980-01-06T23:13:19.119055192Z,-0.345962,0.430956,9.662399,-0.021838,-0.007457,-0.061785
1980-01-06T23:13:19.138932276Z,-0.486023,0.410606,9.724648,-0.006392,-0.005459,-0.036219
1980-01-06T23:13:19.158789307Z,-0.509965,0.468066,9.815030,0.001465,-0.005459,-0.001598
1980-01-06T23:13:19.178672171Z,-0.360327,0.223858,9.743204,-0.014115,-0.005326,-0.028229
1980-01-06T23:13:19.198533630Z,-0.384269,0.333991,9.738416,-0.023968,-0.003995,-0.033556
1980-01-06T23:13:19.218425088Z,-0.426168,0.293290,9.666590,-0.017311,-0.006658,-0.030360
1980-01-06T23:13:19.238287380Z,-0.439336,0.238223,9.728839,-0.017976,-0.004794,-0.025034
1980-01-06T23:13:19.258165088Z,-0.392649,0.260968,9.747993,-0.005060,-0.008389,-0.033556
1980-01-06T23:13:19.278020296Z,-0.365116,0.265756,9.752781,-0.023569,-0.004661,-0.032491
1980-01-06T23:13:19.297879984Z,-0.507571,0.247800,9.719262,-0.005992,-0.006658,-0.027164
1980-01-06T23:13:19.317749619Z,-0.288501,0.214281,9.714474,-0.014115,-0.006125,-0.028229
1980-01-06T23:13:19.337630192Z,-0.323217,0.154426,9.704897,-0.002796,-0.009454,-0.032491
1980-01-06T23:13:19.357481598Z,-0.365116,0.265756,9.743204,-0.008788,-0.006658,-0.041013
1980-01-06T23:13:19.377369723Z,-0.515950,0.231040,9.676167,-0.014781,-0.007057,-0.034621
1980-01-06T23:13:19.397221234Z,-0.484826,0.158017,9.690532,-0.013183,-0.004794,-0.029295
1980-01-06T23:13:19.417088786Z,-0.095768,0.238223,9.728839,-0.025167,-0.008389,-0.023968
1980-01-06T23:13:19.436816182Z,-0.338780,0.191536,9.762358,-0.008655,-0.006924,-0.018642
1980-01-06T23:13:19.456841026Z,-0.326809,0.263362,9.714474,-0.007989,-0.006791,-0.025034
1980-01-06T23:13:19.476571442Z,-0.268151,0.256180,9.713875,-0.006791,-0.010120,-0.015979
1980-01-06T23:13:19.496583942Z,-0.792481,0.245406,9.675568,-0.004527,-0.000266,-0.019175
1980-01-06T23:13:19.516443421Z,-0.332794,0.172383,9.785701,-0.017843,-0.002530,-0.024501
1980-01-06T23:13:19.536309775Z,-0.319626,0.173580,9.704298,-0.010653,-0.006791,-0.018109
1980-01-06T23:13:19.556177848Z,-0.440533,0.227449,9.748590,-0.015579,-0.000533,-0.022371
1980-01-06T23:13:19.576052171Z,-0.184354,0.180762,9.758167,-0.002530,-0.009587,-0.026632
1980-01-06T23:13:19.595925661Z,-0.375890,0.223858,9.748590,-0.013715,-0.011585,-0.040480
1980-01-06T23:13:19.615775192Z,-0.609324,0.281319,9.715072,-0.010253,0.005193,-0.026632
1980-01-06T23:13:19.635663005Z,-0.331597,0.174777,9.743802,-0.005593,-0.001065,-0.026632
1980-01-06T23:13:19.655514880Z,-0.424971,0.180762,9.815030,-0.007723,-0.013715,-0.035686
1980-01-06T23:13:19.675392432Z,-0.754174,0.252588,9.800665,-0.018376,0.007191,-0.011185
1980-01-06T23:13:19.695304827Z,-0.720655,0.100556,9.781511,-0.017843,0.002264,-0.045274
1980-01-06T23:13:19.715305973Z,-0.852336,0.189142,9.810242,-0.006658,0.005859,-0.035686
1980-01-06T23:13:19.754859463Z,-0.626084,0.185551,9.791088,-0.015713,-0.001864,-0.023968
1980-01-06T23:13:19.774749932Z,-0.405817,0.222661,9.824607,-0.002131,0.000399,-0.037817
1980-01-06T23:13:19.794611911Z,-0.333991,0.247800,9.743802,-0.008256,-0.005459,-0.042611
1980-01-06T23:13:19.814464619Z,-0.618901,0.136469,9.705495,0.004128,-0.005193,-0.052198
1980-01-06T23:13:19.834340609Z,-0.191536,0.231040,9.719860,-0.002397,-0.011185,-0.050067
1980-01-06T23:13:19.854251338Z,-0.482432,0.190339,9.691130,-0.003728,-0.003196,-0.045806
1980-01-06T23:13:19.874083786Z,-0.782904,0.199916,9.758167,-0.012384,0.005859,-0.029827
1980-01-06T23:13:19.913828473Z,-0.634463,0.150835,9.800665,-0.015047,0.002131,-0.032491
1980-01-06T23:13:19.933694619Z,-0.543484,0.131681,9.762358,-0.023968,-0.001598,-0.031425
1980-01-06T23:13:19.953564046Z,-0.195127,0.195127,9.657013,-0.013316,-0.010919,-0.058057
1980-01-06T23:13:19.973295036Z,-0.537498,0.214281,9.724051,0.003595,-0.002929,-0.038882
1980-01-06T23:13:19.993309827Z,-0.073023,0.295684,9.767146,0.016911,-0.013316,0.001598
1980-01-06T23:13:20.013158265Z,-0.110133,0.147243,9.728839,-0.004261,-0.010386,-0.010120
1980-01-06T23:13:20.033075609Z,-0.290895,0.245406,9.613917,-0.019042,-0.006658,-0.010120
1980-01-06T23:13:20.052897588Z,0.144849,0.079009,9.609727,0.000932,-0.012117,-0.030893
1980-01-06T23:13:20.072779046Z,-1.091756,0.052672,9.638457,-0.040613,0.010919,-0.030893
1980-01-06T23:13:20.092650088Z,-0.277727,0.341174,9.839570,-0.019441,-0.002663,-0.020240
1980-01-06T23:13:20.112509098Z,-0.682347,0.199916,9.829993,-0.017976,-0.006125,-0.014914
1980-01-06T23:13:20.132383161Z,0.160412,0.289698,9.758167,0.010519,-0.015713,-0.015979
1980-01-06T23:13:20.152248213Z,-1.461660,-0.196325,9.528324,-0.039814,0.012251,-0.033023
1980-01-06T23:13:20.172133004Z,0.632069,0.550666,9.776723,0.029694,-0.028496,0.001598
1980-01-06T23:13:20.192002744Z,-0.790087,0.077812,9.642648,0.006258,-0.004661,-0.000533
1980-01-06T23:13:20.211857744Z,-0.165200,0.143652,9.647436,-0.012517,-0.009454,-0.059122
1980-01-06T23:13:20.231731494Z,-0.007183,0.215478,9.666590,0.012251,-0.016911,-0.003728
1980-01-06T23:13:20.251745817Z,-0.454898,0.065841,9.661801,-0.005859,-0.003063,-0.015446
1980-01-06T23:13:20.271480192Z,-0.460884,0.192733,9.647436,-0.009987,-0.004527,-0.047404
1980-01-06T23:13:20.291331650Z,0.058658,0.234632,9.743204,0.010386,-0.015180,-0.000533
1980-01-06T23:13:20.311198734Z,-1.049857,0.015562,9.724051,-0.024368,-0.001997,-0.029295
1980-01-06T23:13:20.331064931Z,-0.173580,0.252588,9.896433,0.007723,-0.011718,0.002663
1980-01-06T23:13:20.350589827Z,-0.578200,0.117316,9.648034,0.008788,-0.003728,-0.057524
1980-01-06T23:13:20.370810452Z,-0.669179,0.098162,9.777321,-0.001198,-0.001465,-0.000000
1980-01-06T23:13:20.390676181Z,-0.094571,0.275333,9.782109,-0.014115,-0.011718,-0.011718
1980-01-06T23:13:20.410554046Z,-0.483629,0.064643,9.485229,0.005326,-0.002530,0.024501
1980-01-06T23:13:20.430416963Z,-0.617704,0.084994,9.734225,-0.016911,-0.008389,-0.023436
1980-01-06T23:13:20.450312692Z,-0.100556,0.353145,9.877877,-0.007590,-0.015579,-0.015979
1980-01-06T23:13:20.470190036Z,-1.418565,-0.373495,9.686341,-0.050334,0.008256,-0.012783
1980-01-06T23:13:20.490025348Z,-0.144849,0.386664,9.838972,0.002264,-0.009587,-0.012251
1980-01-06T23:13:20.529759619Z,-0.555455,0.046687,9.628283,-0.001465,-0.010120,0.001598
1980-01-06T23:13:20.549640504Z,-0.372298,0.152032,9.728839,0.008922,-0.006125,-0.029295
1980-01-06T23:13:20.569504202Z,-0.356736,0.168791,9.733627,0.011718,-0.010120,-0.014381
1980-01-06T23:13:20.589358369Z,-0.535104,0.099359,9.690532,-0.007723,-0.003728,-0.004794
1980-01-06T23:13:20.609234515Z,-0.525527,0.173580,9.782109,-0.002929,-0.003462,-0.042611
1980-01-06T23:13:20.629082223Z,-0.571017,0.183156,9.810840,-0.002131,-0.005859,-0.030893
1980-01-06T23:13:20.668847588Z,-0.511162,0.011971,9.604939,-0.016378,0.000266,-0.036219
1980-01-06T23:13:20.688714046Z,-0.033519,0.283713,9.791686,0.003995,-0.007324,-0.031958
1980-01-06T23:13:20.708595504Z,-0.183156,0.264559,9.782109,0.019707,-0.016512,-0.002131
1980-01-06T23:13:20.728428369Z,-0.779313,0.001197,9.719860,-0.029295,0.001198,-0.008522
1980-01-06T23:13:20.748283108Z,-0.260968,0.217872,9.758167,0.000666,-0.003462,-0.034088
1980-01-06T23:13:20.768162952Z,-0.365116,0.195127,9.547478,0.017843,-0.015579,-0.014914
1980-01-06T23:13:20.788025973Z,-0.503979,0.100556,9.815628,-0.012251,-0.004527,-0.045806
1980-01-06T23:13:20.807922587Z,-0.699107,-0.044293,9.705495,-0.036352,0.006924,-0.019175
1980-01-06T23:13:20.827866806Z,-0.243011,0.296881,9.753379,0.009721,-0.013183,-0.026632
1980-01-06T23:13:20.847636442Z,-0.294487,0.219069,9.806051,0.012251,-0.009055,-0.033023
1980-01-06T23:13:20.867546650Z,-0.411803,0.172383,9.729437,-0.012650,-0.007057,-0.049002
1980-01-06T23:13:20.887382587Z,-0.276530,0.162806,9.633669,0.011851,-0.012517,-0.036219
1980-01-06T23:13:20.907243733Z,-0.812831,0.003591,9.777321,0.001731,-0.001198,-0.038349
1980-01-06T23:13:20.927293994Z,-0.560243,0.101754,9.806051,-0.018775,0.000533,-0.033023
1980-01-06T23:13:20.947130348Z,-0.252588,0.247800,9.752781,0.008922,-0.011718,-0.023968
1980-01-06T23:13:20.966858004Z,-0.053870,0.296881,9.671378,0.015047,-0.017976,-0.033556
1980-01-06T23:13:20.986713160Z,-0.313640,0.160412,9.700109,-0.003329,-0.007057,-0.029295
1980-01-06T23:13:21.006588212Z,-0.339977,0.185551,9.690532,0.005593,-0.013449,-0.010120
1980-01-06T23:13:21.026477483Z,-0.350751,0.169988,9.704897,0.006125,-0.014381,-0.023968
1980-01-06T23:13:21.046352639Z,-0.582988,0.105345,9.690532,-0.003862,-0.005193,-0.019707
1980-01-06T23:13:21.066208942Z,-0.505177,0.084994,9.719262,-0.022504,0.003196,-0.020773
1980-01-06T23:13:21.086062431Z,-0.080206,0.401029,9.762358,0.026632,-0.013715,-0.035686
1980-01-06T23:13:21.125800764Z,-0.384269,0.084994,9.685743,-0.027697,-0.001465,-0.011185
1980-01-06T23:13:21.145669827Z,0.009577,0.353145,9.633669,0.033689,-0.024767,-0.031958
1980-01-06T23:13:21.165560087Z,-1.353921,-0.116119,9.691130,-0.035819,0.010919,-0.043676
1980-01-06T23:13:21.185404827Z,-0.274136,0.217872,9.901819,-0.007457,-0.004261,-0.056459
1980-01-06T23:13:21.205308629Z,-0.493206,0.137667,9.753379,-0.008655,0.000666,-0.030893
1980-01-06T23:13:21.225256129Z,-0.515950,0.136469,9.873089,-0.005459,-0.008922,-0.029827
1980-01-06T23:13:21.245015244Z,-0.697910,0.172383,9.868300,0.019841,-0.014781,0.010653
1980-01-06T23:13:21.264904306Z,-1.108515,-0.207098,9.600150,-0.022903,0.004394,-0.050067
1980-01-06T23:13:21.284762744Z,-0.232238,0.277727,9.786898,0.001332,-0.006258,-0.036219
1980-01-06T23:13:21.304630608Z,-0.688333,0.120907,9.796474,0.000000,-0.003462,0.005326
1980-01-06T23:13:21.324499098Z,-0.302867,0.223858,9.897031,0.000266,-0.008123,-0.028762
1980-01-06T23:13:21.344363733Z,-0.172383,0.243011,9.671976,0.017577,-0.016112,-0.025566
1980-01-06T23:13:21.364244462Z,-0.354342,0.171185,9.576208,0.007856,-0.013049,-0.009587
1980-01-06T23:13:21.384102796Z,-0.694318,0.092177,9.695918,-0.001198,-0.005726,-0.006392
1980-01-06T23:13:21.423841077Z,-0.344765,0.225055,9.820416,0.014514,-0.007324,-0.044741
1980-01-06T23:13:21.443705504Z,-0.201113,0.260968,9.719860,0.006525,-0.015846,-0.038349
1980-01-06T23:13:21.463583577Z,-0.599748,0.043096,9.633669,-0.005726,-0.010786,-0.004261
1980-01-06T23:13:21.483445191Z,-0.198719,0.153229,9.619304,0.004661,-0.013183,-0.034088
1980-01-06T23:13:21.503311025Z,-0.308852,0.159214,9.719860,0.017177,-0.019308,-0.023436
1980-01-06T23:13:21.523193525Z,-0.489614,0.158017,9.691130,0.000266,-0.005593,-0.013848
1980-01-06T23:13:21.543046389Z,-0.225055,0.169988,9.806051,0.005193,-0.005859,-0.026632
1980-01-06T23:13:21.562924098Z,-0.531513,0.172383,9.700109,0.009321,-0.006525,-0.035686
1980-01-06T23:13:21.582794879Z,-0.693121,0.201113,9.700109,-0.012650,-0.005326,-0.032491
1980-01-06T23:13:21.602655087Z,-0.450110,0.150835,9.700109,0.001864,-0.007324,-0.032491
1980-01-06T23:13:21.622673368Z,-0.575805,0.173580,9.700109,-0.003462,-0.006525,-0.031425
1980-01-06T23:13:21.642428368Z,-0.489614,0.155623,9.810242,-0.000133,-0.004927,-0.029295
1980-01-06T23:13:21.662227066Z,-0.357933,0.171185,9.767744,0.007590,-0.009321,-0.022371
1980-01-06T23:13:21.682126285Z,-0.458490,0.173580,9.705495,-0.001997,-0.004527,-0.023436
1980-01-06T23:13:21.701881754Z,-0.180762,0.155623,9.695918,0.003995,-0.009987,-0.023436
1980-01-06T23:13:21.721751233Z,-0.316035,0.153229,9.681553,0.011585,-0.014381,-0.030893
1980-01-06T23:13:21.741608525Z,-0.513556,0.189142,9.724648,-0.009321,-0.005859,-0.031958
1980-01-06T23:13:21.761453316Z,-0.136469,0.160412,9.762358,0.008922,-0.012650,-0.032491
1980-01-06T23:13:21.781347639Z,-0.588974,0.222661,9.728839,0.003329,-0.010786,-0.041013
1980-01-06T23:13:21.801220348Z,-0.462081,0.175974,9.714474,-0.004394,-0.006525,-0.042078
1980-01-06T23:13:21.821081493Z,-0.586579,0.210690,9.690532,0.001465,-0.003063,-0.035686
1980-01-06T23:13:21.840961441Z,-0.445322,0.160412,9.695320,0.001065,-0.005859,-0.023968
1980-01-06T23:13:21.860799931Z,-0.278924,0.125696,9.728240,0.005459,-0.012251,-0.026632
1980-01-06T23:13:21.880685347Z,-0.507571,0.201113,9.747394,0.002530,-0.007457,-0.029827
1980-01-06T23:13:21.900549618Z,-0.306458,0.137667,9.733028,-0.003063,-0.009321,-0.025566
1980-01-06T23:13:21.920421754Z,-0.509965,0.201113,9.709086,-0.000932,-0.006924,-0.024501
1980-01-06T23:13:21.940289514Z,-0.381875,0.183156,9.737817,0.003462,-0.011718,-0.026632
1980-01-06T23:13:21.960183837Z,-0.624887,0.234632,9.699510,0.002929,-0.005992,-0.024501
1980-01-06T23:13:21.980028420Z,-0.415394,0.186748,9.795278,-0.002796,-0.005060,-0.018109
1980-01-06T23:13:21.999901337Z,-0.083797,0.092177,9.742605,0.000799,-0.011185,-0.015979
1980-01-06T23:13:22.019789097Z,-0.457293,0.205901,9.737817,0.001598,-0.012117,-0.028762
1980-01-06T23:13:22.039642483Z,-0.490811,0.171185,9.704298,0.000932,-0.009454,-0.034088
1980-01-06T23:13:22.059515712Z,-0.417788,0.138864,9.689933,0.001864,-0.008922,-0.026632
1980-01-06T23:13:22.079376650Z,-0.477643,0.215478,9.718663,0.004394,-0.008389,-0.024501
1980-01-06T23:13:22.099229254Z,-0.466869,0.233435,9.771935,-0.003063,-0.006924,-0.021838
1980-01-06T23:13:22.119119254Z,-0.434548,0.192733,9.738416,-0.006791,-0.006924,-0.019707
1980-01-06T23:13:22.158854722Z,-0.306458,0.123301,9.719860,-0.000533,-0.011318,-0.025566
1980-01-06T23:13:22.178709410Z,-0.460884,0.146046,9.719860,0.008123,-0.011185,-0.037284
1980-01-06T23:13:22.198616910Z,-0.268151,0.022745,9.729437,0.005060,-0.012916,-0.052198
1980-01-06T23:13:22.218443160Z,-0.478840,0.111330,9.705495,0.005459,-0.009854,-0.085221
1980-01-06T23:13:22.238326649Z,-0.373495,0.160412,9.738416,-0.000399,-0.010253,-0.084688
1980-01-06T23:13:22.258243577Z,-0.487220,0.179565,9.714474,0.000932,-0.010919,-0.071905
1980-01-06T23:13:22.278076233Z,-0.490811,0.209493,9.671378,-0.001332,-0.006658,-0.064448
1980-01-06T23:13:22.297913733Z,-0.492008,0.247800,9.767146,0.004261,-0.010653,-0.064448
1980-01-06T23:13:22.317784306Z,-0.513556,0.181959,9.709685,0.000533,-0.009055,-0.066579
1980-01-06T23:13:22.337663108Z,-0.506374,0.263362,9.738416,-0.004661,-0.005060,-0.041013
1980-01-06T23:13:22.357563004Z,-0.553061,0.264559,9.757569,0.002929,-0.005060,-0.032491
1980-01-06T23:13:22.377409201Z,-0.466869,0.201113,9.752781,-0.005193,-0.005593,-0.031425
1980-01-06T23:13:22.397291441Z,-0.401029,0.204704,9.728839,-0.005992,-0.007723,-0.030360
1980-01-06T23:13:22.417150243Z,-0.514753,0.289698,9.757569,-0.003329,-0.005726,-0.021838
1980-01-06T23:13:22.437014045Z,-0.187945,-0.007183,9.700109,-0.004927,-0.009321,-0.023968
1980-01-06T23:13:22.456869149Z,-0.369904,0.074220,9.709685,-0.005726,-0.007723,-0.036752
1980-01-06T23:13:22.476777274Z,-0.251391,0.067038,9.724051,0.001731,-0.014115,-0.062318
1980-01-06T23:13:22.496601285Z,-0.414197,0.215478,9.685743,0.002131,-0.005726,-0.050600
1980-01-06T23:13:22.516467795Z,-0.351948,0.120907,9.733627,-0.001465,-0.006924,-0.054861
1980-01-06T23:13:22.536372326Z,-0.472855,0.202310,9.752781,0.010253,-0.010120,-0.066579
1980-01-06T23:13:22.556218576Z,-0.438139,0.244209,9.743204,0.007723,-0.010120,-0.038882
1980-01-06T23:13:22.576095243Z,-0.447716,0.245406,9.623494,-0.009454,-0.012251,-0.050600
1980-01-06T23:13:22.615843420Z,-0.575805,0.347159,9.685743,-0.009055,-0.005992,-0.020773
1980-01-06T23:13:22.635707326Z,-0.417788,0.143652,9.733627,-0.006525,-0.006525,-0.015446
1980-01-06T23:13:22.655532014Z,-0.418985,0.193930,9.747394,-0.000533,-0.005992,-0.014914
1980-01-06T23:13:22.675447535Z,-0.405817,0.178368,9.756970,0.000799,-0.005060,-0.014914
1980-01-06T23:13:22.695309774Z,-0.410606,0.186748,9.728240,0.007057,-0.004527,-0.014914
1980-01-06T23:13:22.715194462Z,-0.405817,0.189142,9.680356,0.002929,-0.004527,-0.014914
1980-01-06T23:13:22.735024826Z,-0.418985,0.180762,9.715072,0.004527,-0.005859,-0.013848
1980-01-06T23:13:22.754902639Z,0.034716,-0.063446,9.806051,-0.011851,-0.015313,-0.003196
1980-01-06T23:13:22.774768003Z,-0.366313,0.084994,9.743802,-0.001598,-0.019175,0.007457
1980-01-06T23:13:22.794634045Z,-0.304064,-0.013168,9.657611,-0.006258,-0.013582,0.006392
1980-01-06T23:13:22.814484253Z,-0.549469,0.227449,9.724648,-0.002796,-0.011052,-0.023436
1980-01-06T23:13:22.834375868Z,-0.241814,-0.040701,9.739014,-0.005060,-0.010919,-0.017044
1980-01-06T23:13:22.854249670Z,-0.524330,0.272939,9.710283,0.003728,-0.015180,-0.039415
1980-01-06T23:13:22.874146701Z,-0.524330,0.457293,9.691130,0.007191,-0.006924,-0.018109
1980-01-06T23:13:22.893959826Z,-0.560243,0.353145,9.758167,0.003995,-0.006258,-0.011718
1980-01-06T23:13:22.913886024Z,-0.526724,0.377087,9.715072,0.003462,-0.009188,-0.011718
1980-01-06T23:13:22.933720347Z,-0.511162,0.335188,9.691130,-0.003063,-0.009454,-0.010653
1980-01-06T23:13:22.953570712Z,-0.413000,0.181959,9.710283,-0.000932,-0.009055,-0.013848
1980-01-06T23:13:22.973486701Z,-0.415394,0.205901,9.743802,-0.001598,-0.007856,-0.014914
1980-01-06T23:13:22.993351910Z,-0.410606,0.187945,9.748590,0.001864,-0.007324,-0.015979
1980-01-06T23:13:23.013194097Z,-0.393846,0.185551,9.724648,0.004261,-0.007590,-0.014914
1980-01-06T23:13:23.033049045Z,-0.405817,0.164003,9.724051,0.005726,-0.010253,-0.014381
1980-01-06T23:13:23.052943316Z,-0.407014,0.223858,9.714474,0.008256,-0.009321,-0.014381
1980-01-06T23:13:23.072803785Z,-0.402226,0.211887,9.719262,0.004394,-0.010653,-0.015446
1980-01-06T23:13:23.092668264Z,-0.420182,0.180762,9.743204,0.007856,-0.010786,-0.013316
1980-01-06T23:13:23.112517535Z,-0.391452,0.195127,9.728839,0.011052,-0.012517,-0.011185
1980-01-06T23:13:23.132405920Z,-0.427365,0.156820,9.685743,-0.007590,-0.007989,0.044208
1980-01-06T23:13:23.152258732Z,-0.403423,0.220267,9.709685,0.004527,-0.009987,0.021838
1980-01-06T23:13:23.172157014Z,-0.351948,0.209493,9.714474,-0.006658,-0.008788,0.031425
1980-01-06T23:13:23.192010607Z,-0.377087,0.258574,9.733627,-0.010519,-0.010919,0.017577
1980-01-06T23:13:23.211888472Z,-0.399832,0.205901,9.757569,-0.001864,-0.007590,0.007989
1980-01-06T23:13:23.231755243Z,-0.384269,0.238223,9.767146,0.001997,-0.008389,0.003728
1980-01-06T23:13:23.251629149Z,-0.408211,0.227449,9.734225,-0.007723,-0.005726,0.009587
1980-01-06T23:13:23.271503576Z,-0.384269,0.210690,9.739014,-0.006525,-0.005992,0.014914
1980-01-06T23:13:23.291362482Z,-0.395043,0.228646,9.719860,0.007856,-0.010120,0.003196
1980-01-06T23:13:23.311232691Z,-0.403423,0.185551,9.705495,-0.014781,-0.004261,0.031958
1980-01-06T23:13:23.331097795Z,-0.411803,0.228646,9.733627,0.011318,-0.009055,0.023968
1980-01-06T23:13:23.350966597Z,-0.351948,0.081403,9.762358,-0.005193,-0.008256,0.016512
1980-01-06T23:13:23.370838837Z,-0.409408,0.007183,9.728839,-0.022371,-0.008123,-0.023968
1980-01-06T23:13:23.390720555Z,-0.377087,0.225055,9.709685,-0.003595,-0.011718,-0.035686
1980-01-06T23:13:23.410564618Z,-0.363919,0.203507,9.690532,-0.009188,-0.006658,-0.019707
1980-01-06T23:13:23.430434253Z,-0.390255,0.290895,9.738416,0.018642,-0.012650,0.003728
1980-01-06T23:13:23.450351961Z,-0.414197,0.275333,9.757569,0.017577,-0.013582,0.021838
1980-01-06T23:13:23.470169305Z,-0.450110,0.040701,9.747993,-0.006125,-0.009587,-0.009055
1980-01-06T23:13:23.490034253Z,-0.399832,0.260968,9.752781,-0.009454,-0.010519,-0.017577
1980-01-06T23:13:23.509921024Z,-0.421380,0.245406,9.657013,-0.015313,-0.007723,-0.022903
1980-01-06T23:13:23.529796857Z,-0.458490,0.314838,9.714474,0.005459,-0.010386,-0.012251
1980-01-06T23:13:23.549664878Z,-0.404620,0.347159,9.738416,0.023036,-0.013316,-0.015446
1980-01-06T23:13:23.569521336Z,-0.421380,0.158017,9.771935,0.008389,-0.010253,-0.015446
1980-01-06T23:13:23.589388993Z,-0.347159,0.323217,9.781511,0.011052,-0.012517,-0.023968
1980-01-06T23:13:23.609262170Z,-0.429759,0.160412,9.747993,-0.000932,-0.008922,-0.003728
1980-01-06T23:13:23.629148159Z,-0.374693,0.216675,9.700109,-0.009188,-0.010386,-0.018642
1980-01-06T23:13:23.649004513Z,-0.409408,0.191536,9.685743,0.001065,-0.007856,-0.023968
1980-01-06T23:13:23.668861805Z,-0.407014,0.268151,9.714474,-0.005726,-0.008522,-0.029295
1980-01-06T23:13:23.688753784Z,-0.429759,0.208296,9.757569,0.001198,-0.009587,-0.011185
1980-01-06T23:13:23.708614722Z,-0.427365,0.160412,9.738416,-0.001065,-0.007856,-0.011185
1980-01-06T23:13:23.728508524Z,-0.409408,0.234632,9.695320,0.004794,-0.012117,-0.018642
1980-01-06T23:13:23.748343316Z,-0.401029,0.190339,9.652225,-0.006258,-0.008256,-0.017577
1980-01-06T23:13:23.768207430Z,-0.350751,0.262165,9.715072,-0.007191,-0.007057,-0.012783
1980-01-06T23:13:23.788084253Z,-0.383072,0.232238,9.729437,-0.005726,-0.007989,-0.003196
1980-01-06T23:13:23.807947326Z,-0.379481,0.292093,9.767744,0.006924,-0.012251,-0.010653
1980-01-06T23:13:23.827817378Z,-0.426168,0.207098,9.705495,0.006258,-0.010786,-0.015979
1980-01-06T23:13:23.847679305Z,-0.415394,0.193930,9.748590,-0.014914,-0.002264,-0.030893
1980-01-06T23:13:23.867555190Z,-0.328006,0.405817,9.729437,-0.000533,-0.009055,-0.002131
1980-01-06T23:13:23.887433055Z,-0.427365,0.136469,9.748590,-0.001065,-0.005593,-0.010653
1980-01-06T23:13:23.907303368Z,-0.343568,0.296881,9.743802,-0.005593,-0.008655,-0.010653
1980-01-06T23:13:23.927180815Z,-0.395043,0.238223,9.729437,-0.004128,-0.009587,-0.015979
1980-01-06T23:13:23.947054982Z,-0.428562,0.180762,9.729437,-0.018376,-0.005726,-0.008522
1980-01-06T23:13:23.966914982Z,-0.429759,0.192733,9.729437,-0.011318,-0.007590,-0.020240
1980-01-06T23:13:23.986812013Z,-0.347159,0.258574,9.743802,-0.005726,-0.010120,-0.019175
1980-01-06T23:13:24.006653576Z,-0.378284,0.278924,9.734225,0.007457,-0.011318,-0.020240
1980-01-06T23:13:24.026514722Z,-0.496797,0.016759,9.710283,-0.015579,-0.005326,-0.022371
1980-01-06T23:13:24.046407534Z,-0.338780,0.301669,9.748590,-0.001332,-0.005459,-0.022371
1980-01-06T23:13:24.066286909Z,-0.417788,0.195127,9.715072,-0.006525,-0.008256,0.007457
1980-01-06T23:13:24.086121857Z,-0.440533,0.123301,9.695918,-0.018775,-0.004394,-0.002131
1980-01-06T23:13:24.125835763Z,-0.293290,0.344765,9.753379,0.012783,-0.013848,-0.018109
1980-01-06T23:13:24.145748888Z,-0.471658,0.080206,9.700706,-0.004394,-0.007191,-0.022371
1980-01-06T23:13:24.165595555Z,-0.393846,0.147243,9.705495,-0.016378,-0.002397,-0.027697
1980-01-06T23:13:24.185470138Z,-0.389058,0.231040,9.729437,-0.007590,-0.003462,-0.031958
1980-01-06T23:13:24.205353524Z,-0.314838,0.294487,9.734225,-0.009454,-0.008389,-0.010653
1980-01-06T23:13:24.225192117Z,-0.319626,0.296881,9.734225,0.014781,-0.012117,-0.006392
1980-01-06T23:13:24.245072170Z,-0.418985,0.198719,9.729437,-0.001065,-0.008256,-0.013848
1980-01-06T23:13:24.264948420Z,-0.398635,0.196325,9.733627,-0.003196,-0.007457,-0.017577
1980-01-06T23:13:24.284786388Z,-0.444124,0.077812,9.685743,-0.018775,-0.000399,-0.019707
1980-01-06T23:13:24.304679774Z,-0.389058,0.203507,9.714474,-0.012384,-0.004261,-0.015446
1980-01-06T23:13:24.324543628Z,-0.280122,0.347159,9.728839,0.005459,-0.009321,-0.013316
1980-01-06T23:13:24.344421649Z,-0.415394,0.185551,9.719262,0.003862,-0.010653,-0.015446
1980-01-06T23:13:24.364282482Z,-0.512359,0.051475,9.728839,-0.015313,-0.003862,-0.016512
1980-01-06T23:13:24.384168940Z,-0.372298,0.180762,9.753379,-0.002264,-0.007457,-0.009587
1980-01-06T23:13:24.404019930Z,-0.362722,0.275333,9.719860,-0.004261,-0.004794,0.006392
1980-01-06T23:13:24.423904617Z,-0.430956,0.195127,9.743204,-0.008655,-0.009454,0.013316
1980-01-06T23:13:24.443756232Z,-0.520739,0.079009,9.733627,-0.011718,-0.006125,-0.007989
1980-01-06T23:13:24.463654930Z,-0.375890,0.186748,9.752781,-0.000399,-0.007856,-0.000533
1980-01-06T23:13:24.483505190Z,-0.512359,0.058658,9.680955,-0.006658,-0.006125,-0.038882
1980-01-06T23:13:24.503367378Z,-0.270545,0.320823,9.733627,-0.001731,-0.007723,0.005859
1980-01-06T23:13:24.523211701Z,-0.519542,0.070629,9.657013,-0.009454,-0.004527,-0.010120
1980-01-06T23:13:24.543115086Z,-0.369904,0.247800,9.810242,0.003329,-0.014381,0.007989
1980-01-06T23:13:24.562953576Z,-0.519542,0.045490,9.695320,-0.015713,-0.005060,-0.014381
1980-01-06T23:13:24.582862430Z,-0.287304,0.317232,9.796474,0.000666,-0.012783,-0.014914
1980-01-06T23:13:24.602666128Z,-0.411803,0.172383,9.633669,-0.002530,-0.010120,-0.025566
1980-01-06T23:13:24.622592274Z,-0.483629,0.167594,9.753379,-0.007324,-0.007989,-0.025566
1980-01-06T23:13:24.642475711Z,-0.410606,0.161609,9.708488,-0.005326,-0.006791,-0.022903
1980-01-06T23:13:24.662303419Z,-0.377087,0.208296,9.765948,-0.007057,-0.007057,-0.019707
1980-01-06T23:13:24.682164669Z,-0.377087,0.196325,9.703699,-0.009454,-0.003995,-0.012251
1980-01-06T23:13:24.702023524Z,-0.374693,0.245406,9.746795,-0.009721,-0.005593,-0.000533
1980-01-06T23:13:24.721930659Z,-0.393846,0.209493,9.742006,-0.016911,-0.007057,-0.019707
1980-01-06T23:13:24.741771388Z,-0.333991,0.286107,9.746795,-0.006924,-0.010120,-0.017577
1980-01-06T23:13:24.761654044Z,-0.418985,0.144849,9.689334,-0.013183,-0.009721,-0.014381
1980-01-06T23:13:24.781514148Z,-0.258574,0.290895,9.703699,0.004661,-0.006791,-0.021838
1980-01-06T23:13:24.801371076Z,-0.367510,0.201113,9.713276,-0.001332,-0.009188,-0.019707
1980-01-06T23:13:24.821250242Z,-0.328006,0.210690,9.780313,0.003196,-0.008256,-0.017577
1980-01-06T23:13:24.841116284Z,-0.391452,0.201113,9.718064,-0.001198,-0.006791,-0.016512
1980-01-06T23:13:24.880850086Z,-0.398635,0.195127,9.722853,-0.008389,-0.007590,-0.015446
1980-01-06T23:13:24.900717742Z,-0.405817,0.193930,9.751583,-0.005459,-0.007723,-0.015446
1980-01-06T23:13:24.920582898Z,-0.391452,0.187945,9.722853,-0.004927,-0.009854,-0.015446
1980-01-06T23:13:24.940444617Z,-0.393846,0.172383,9.732430,-0.002397,-0.009987,-0.015446
1980-01-06T23:13:24.960320971Z,-0.390255,0.180762,9.722853,-0.001731,-0.010120,-0.015446
1980-01-06T23:13:24.980251596Z,-0.368707,0.172383,9.732430,0.003063,-0.008788,-0.015446
1980-01-06T23:13:25.000071440Z,-0.387861,0.197522,9.708488,0.002530,-0.010519,-0.016512
1980-01-06T23:13:25.019914044Z,-0.439336,0.153229,9.727641,0.000533,-0.009987,-0.018642
1980-01-06T23:13:25.039781284Z,-0.322020,0.227449,9.674969,-0.007191,-0.006392,-0.034621
1980-01-06T23:13:25.059675242Z,-0.415394,0.164003,9.722853,0.002663,-0.009587,-0.017577
1980-01-06T23:13:25.079546492Z,-0.442927,0.186748,9.718663,-0.008522,-0.006392,-0.008522
1980-01-06T23:13:25.099407690Z,-0.281319,0.239420,9.766547,-0.000000,-0.010519,-0.013848
1980-01-06T23:13:25.119303211Z,-0.409408,0.183156,9.705495,0.001332,-0.012517,-0.015979
1980-01-06T23:13:25.139130034Z,-0.396240,0.088585,9.676764,-0.005326,-0.006791,-0.022371
1980-01-06T23:13:25.159023992Z,-0.410606,0.187945,9.739014,-0.001598,-0.010786,-0.017044
1980-01-06T23:13:25.178890763Z,-0.324414,0.205901,9.729437,-0.010386,-0.009055,-0.023436
1980-01-06T23:13:25.198767690Z,-0.481235,0.130484,9.705495,-0.014381,-0.005859,-0.022371
1980-01-06T23:13:25.218649096Z,-0.332794,0.185551,9.734225,-0.007590,-0.009188,-0.018109
1980-01-06T23:13:25.238510086Z,-0.405817,0.147243,9.715072,-0.003595,-0.008522,-0.017044
1980-01-06T23:13:25.258398836Z,-0.497994,0.129287,9.729437,-0.010786,-0.006258,-0.011718
1980-01-06T23:13:25.278244982Z,-0.336385,0.198719,9.762956,-0.002131,-0.008522,-0.011718
1980-01-06T23:13:25.298093888Z,-0.481235,0.141258,9.715072,-0.007723,-0.005060,-0.003196
1980-01-06T23:13:25.317977273Z,-0.204704,0.233435,9.786898,0.001332,-0.013316,-0.008522
1980-01-06T23:13:25.337865607Z,-0.497994,0.090980,9.633669,-0.007191,-0.008655,-0.010653
1980-01-06T23:13:25.357723367Z,-0.423774,0.185551,9.753379,-0.001731,-0.008256,-0.020240
1980-01-06T23:13:25.377582221Z,-0.290895,0.231040,9.724648,-0.001198,-0.012251,-0.021305
1980-01-06T23:13:25.397455034Z,-0.378284,0.201113,9.743802,-0.002796,-0.012251,-0.025566
1980-01-06T23:13:25.417302429Z,-0.541090,0.082600,9.719262,-0.009188,-0.005193,-0.030360
1980-01-06T23:13:25.437195450Z,-0.237026,0.243011,9.781511,-0.003728,-0.008123,-0.009055
1980-01-06T23:13:25.457062377Z,-0.408211,0.180762,9.666590,-0.011318,-0.006258,-0.013316
1980-01-06T23:13:25.476949461Z,-0.371101,0.164003,9.728839,-0.003995,-0.007057,-0.018642
1980-01-06T23:13:25.496775242Z,-0.529119,0.084994,9.728839,-0.010519,-0.007989,-0.016512
1980-01-06T23:13:25.516662013Z,-0.312443,0.171185,9.724051,-0.001065,-0.007989,-0.018642
1980-01-06T23:13:25.536554096Z,-0.310049,0.199916,9.647436,-0.003063,-0.009188,-0.015446
1980-01-06T23:13:25.556406492Z,-0.386664,0.138864,9.728839,-0.002397,-0.010253,-0.012251
1980-01-06T23:13:25.576269982Z,-0.517148,0.123301,9.719262,-0.004128,-0.008123,0.000533
1980-01-06T23:13:25.596150034Z,-0.129287,0.232238,9.747993,0.006125,-0.014647,-0.009055
1980-01-06T23:13:25.635879096Z,-0.507571,0.136469,9.767146,-0.010519,-0.004661,-0.011185
1980-01-06T23:13:25.655771544Z,-0.260968,0.227449,9.800665,0.000666,-0.010386,-0.014381
1980-01-06T23:13:25.675623315Z,-0.221464,0.221464,9.695918,-0.007457,-0.011185,-0.013848
1980-01-06T23:13:25.695474773Z,-0.377087,0.165200,9.710283,-0.000533,-0.011318,-0.015979
1980-01-06T23:13:25.715347690Z,-0.387861,0.159214,9.705495,-0.005593,-0.009587,-0.017044
1980-01-06T23:13:25.735239148Z,-0.392649,0.159214,9.738416,-0.005060,-0.008922,-0.017577
1980-01-06T23:13:25.755088419Z,-0.385466,0.166397,9.709685,-0.006924,-0.009454,-0.019707
1980-01-06T23:13:25.774961440Z,-0.368707,0.179565,9.733627,-0.011452,-0.009587,-0.017577
1980-01-06T23:13:25.794833263Z,-0.387861,0.158017,9.738416,-0.006392,-0.010653,-0.017577
1980-01-06T23:13:25.814694617Z,-0.392649,0.159214,9.747993,-0.001198,-0.012783,-0.017577
1980-01-06T23:13:25.834560086Z,-0.429759,0.153229,9.737817,-0.003862,-0.010253,-0.020240
1980-01-06T23:13:25.854506961Z,-0.369904,0.164003,9.699510,-0.006658,-0.006258,-0.027697
1980-01-06T23:13:25.874295711Z,-0.453701,0.144849,9.680356,-0.000133,-0.005060,-0.023436
1980-01-06T23:13:25.894163888Z,-0.247800,0.196325,9.742605,0.005326,-0.007590,-0.018109
1980-01-06T23:13:25.914051804Z,-0.333991,0.167594,9.729437,0.002530,-0.008788,-0.018109
1980-01-06T23:13:25.933921440Z,-0.365116,0.168791,9.729437,-0.005992,-0.008256,-0.015979
1980-01-06T23:13:25.953779877Z,-0.383072,0.166397,9.734225,-0.007457,-0.010519,-0.015979
1980-01-06T23:13:25.973655086Z,-0.390255,0.153229,9.734225,-0.008522,-0.009188,-0.017044
1980-01-06T23:13:25.993528992Z,-0.441730,0.132878,9.719860,-0.001198,-0.008389,-0.019175
1980-01-06T23:13:26.013373263Z,-0.359130,0.144849,9.691130,-0.009055,-0.005992,-0.028762
1980-01-06T23:13:26.033276596Z,-0.366313,0.159214,9.724648,-0.003063,-0.010386,-0.019175
1980-01-06T23:13:26.053143263Z,-0.413000,0.140061,9.739014,-0.004261,-0.005992,-0.021305
1980-01-06T23:13:26.092861596Z,-0.582988,0.156820,9.734225,-0.013183,0.002397,-0.024501
1980-01-06T23:13:26.112748523Z,-0.324414,0.169988,9.743802,-0.006392,-0.007723,-0.012783
1980-01-06T23:13:26.132558419Z,-0.375890,0.129287,9.729437,-0.006392,-0.010653,-0.013848
1980-01-06T23:13:26.152447533Z,-0.351948,0.136469,9.724648,0.000133,-0.010919,-0.013848
1980-01-06T23:13:26.172354981Z,-0.512359,0.120907,9.700706,0.000399,-0.007989,-0.015979
1980-01-06T23:13:26.192207638Z,-0.694318,0.119710,9.739014,-0.006791,-0.000799,-0.015979
1980-01-06T23:13:26.212083210Z,-0.391452,0.175974,9.786898,-0.011984,-0.003862,-0.004261
1980-01-06T23:13:26.231958888Z,-0.154426,0.150835,9.719860,-0.000666,-0.013183,-0.010653
1980-01-06T23:13:26.251815502Z,-0.420182,0.166397,9.728839,-0.004394,-0.009854,-0.012251
1980-01-06T23:13:26.271678315Z,-0.331597,0.147243,9.685743,-0.011585,-0.007723,-0.009055
1980-01-06T23:13:26.291549721Z,-0.366313,0.185551,9.709685,-0.003995,-0.011851,-0.016512
1980-01-06T23:13:26.311424252Z,-0.433351,0.138864,9.728839,-0.006392,-0.008522,-0.020773
1980-01-06T23:13:26.331242273Z,-0.339977,0.159214,9.743204,-0.008389,-0.009587,-0.019707
1980-01-06T23:13:26.351130346Z,-0.238223,0.137667,9.724051,-0.003196,-0.013316,-0.025034
1980-01-06T23:13:26.371058262Z,-0.587777,0.140061,9.690532,-0.010120,-0.007191,-0.031425
1980-01-06T23:13:26.390879877Z,-0.313640,0.171185,9.757569,-0.003995,-0.007457,-0.020773
1980-01-06T23:13:26.410768315Z,-0.263362,0.149638,9.739014,0.002796,-0.006924,-0.015979
1980-01-06T23:13:26.430630190Z,-0.252588,0.166397,9.753379,0.000799,-0.010519,-0.017044
1980-01-06T23:13:26.450504825Z,-0.435745,0.135272,9.719860,-0.002663,-0.009055,-0.017044
1980-01-06T23:13:26.470339929Z,-0.639252,0.167594,9.681553,-0.007856,0.002929,-0.013848
1980-01-06T23:13:26.490327273Z,-0.307655,0.138864,9.719860,-0.009188,-0.004394,-0.002131
1980-01-06T23:13:26.510155033Z,-0.347159,0.152032,9.725846,-0.003329,-0.009321,-0.010386
1980-01-06T23:13:26.529963106Z,-0.434548,0.146046,9.773730,-0.001731,-0.010653,-0.016778
1980-01-06T23:13:26.549816492Z,-0.384269,0.141258,9.733627,-0.001997,-0.009188,-0.016512
1980-01-06T23:13:26.569737637Z,-0.512359,0.144849,9.690532,-0.001332,-0.005992,-0.016512
1980-01-06T23:13:26.589559408Z,-0.220267,0.123301,9.714474,-0.002131,-0.008655,-0.014381
1980-01-06T23:13:26.609453627Z,-0.374693,0.158017,9.728839,0.001731,-0.010919,-0.017577
1980-01-06T23:13:26.629317689Z,-0.442927,0.138864,9.762358,-0.003329,-0.004794,-0.012251
1980-01-06T23:13:26.649164773Z,-0.410606,0.155623,9.733627,-0.007057,-0.002264,-0.009055
1980-01-06T23:13:26.669036908Z,-0.284910,0.135272,9.738416,-0.002663,-0.011718,-0.012251
1980-01-06T23:13:26.688945814Z,-0.542287,0.177171,9.676167,-0.009587,-0.004927,-0.009055
1980-01-06T23:13:26.708779304Z,-0.379481,0.131681,9.743204,-0.004394,-0.004394,-0.001598
1980-01-06T23:13:26.728652325Z,-0.301669,0.152032,9.728839,0.004661,-0.011318,-0.009055
1980-01-06T23:13:26.748575346Z,-0.162806,0.134075,9.728839,-0.005326,-0.010786,-0.005859
1980-01-06T23:13:26.768418783Z,-0.586579,0.169988,9.685743,-0.003995,-0.007856,-0.012251
1980-01-06T23:13:26.788268575Z,-0.457293,0.162806,9.700109,-0.007191,-0.005726,-0.006924
1980-01-06T23:13:26.808100554Z,-0.523133,0.149638,9.743204,0.002663,-0.010386,-0.014381
1980-01-06T23:13:26.847884148Z,-0.685939,0.186748,9.724051,0.002663,-0.009188,-0.015446
1980-01-06T23:13:26.867710398Z,-0.090980,0.094571,9.733627,-0.006392,-0.011452,-0.005859
1980-01-06T23:13:26.887601596Z,-0.427365,0.213084,9.680955,-0.000799,-0.009721,-0.016512
1980-01-06T23:13:26.907473002Z,-0.429759,0.155623,9.767146,-0.000266,-0.005193,-0.014381
1980-01-06T23:13:26.927367846Z,-0.440533,0.190339,9.752781,-0.004527,0.003063,-0.016512
1980-01-06T23:13:26.947224356Z,-0.476446,0.166397,9.782109,-0.001332,-0.005060,-0.006392
1980-01-06T23:13:26.967070762Z,-0.245406,0.142455,9.686341,-0.014514,-0.006258,0.010653
1980-01-06T23:13:26.986926960Z,-0.351948,0.111330,9.676764,0.006791,-0.010786,-0.003196
1980-01-06T23:13:27.006830137Z,-0.423774,0.166397,9.652822,-0.005992,-0.003462,-0.008522
1980-01-06T23:13:27.026662064Z,-0.177171,0.058658,9.785102,0.008655,-0.012251,-0.007989
1980-01-06T23:13:27.046625085Z,-0.523133,0.183156,9.674969,-0.001598,-0.002929,-0.006924
1980-01-06T23:13:27.066446023Z,-0.386664,0.140061,9.780313,0.001332,-0.007856,-0.004794
1980-01-06T23:13:27.086284043Z,-0.323217,0.140061,9.737218,0.007457,-0.013848,-0.015446
1980-01-06T23:13:27.106179043Z,-0.434548,0.140061,9.689334,-0.000932,-0.007723,-0.013316
1980-01-06T23:13:27.126010137Z,-0.514753,0.137667,9.684546,-0.007723,0.001198,-0.005859
1980-01-06T23:13:27.145901179Z,-0.351948,0.172383,9.698911,-0.011185,-0.002796,0.004794
1980-01-06T23:13:27.165756752Z,-0.418985,0.144849,9.722853,-0.005060,-0.009321,-0.009055
1980-01-06T23:13:27.185632377Z,-0.348356,0.147243,9.708488,-0.005859,-0.009188,-0.013316
1980-01-06T23:13:27.205498002Z,-0.280122,0.140061,9.780313,0.016512,-0.014781,-0.020773
1980-01-06T23:13:27.225371179Z,-0.348356,0.148441,9.651027,0.004927,-0.010253,-0.023968
1980-01-06T23:13:27.245236335Z,-0.484826,0.132878,9.737218,0.006791,-0.011185,-0.021838
1980-01-06T23:13:27.265102689Z,-0.574608,0.135272,9.737218,0.003462,-0.006258,-0.020773
1980-01-06T23:13:27.304838679Z,-0.482432,0.160412,9.737218,0.001332,-0.007324,-0.006924
1980-01-06T23:13:27.324699720Z,-0.161609,0.149638,9.794679,0.013049,-0.016112,-0.012251
1980-01-06T23:13:27.344580241Z,-0.390255,0.183156,9.607931,-0.011718,-0.004927,0.006924
1980-01-06T23:13:27.364458575Z,-0.234632,0.084994,9.756371,0.012650,-0.007856,0.011185
1980-01-06T23:13:27.384305710Z,-0.191536,0.168791,9.631873,0.008655,-0.010919,0.007989
1980-01-06T23:13:27.404184564Z,-0.462081,0.095768,9.703699,-0.005459,-0.008788,-0.006924
1980-01-06T23:13:27.424076022Z,-0.600945,0.184354,9.694721,-0.015579,-0.000932,-0.025566
1980-01-06T23:13:27.463820137Z,-0.435745,0.239420,9.628283,-0.010120,-0.001997,-0.021838
1980-01-06T23:13:27.483669512Z,-0.575805,0.114922,9.901221,0.039548,-0.023835,-0.020773
1980-01-06T23:13:27.503533627Z,-0.289698,0.274136,9.762956,-0.013183,0.005326,-0.033023
1980-01-06T23:13:27.523394564Z,-0.458490,0.112527,9.739014,-0.012916,0.000399,-0.008522
1980-01-06T23:13:27.543296022Z,-0.293290,0.185551,9.743802,0.008522,-0.005459,-0.017044
1980-01-06T23:13:27.563166908Z,-0.416591,0.184354,9.657611,-0.026632,0.004394,-0.002131
1980-01-06T23:13:27.583024824Z,-0.537498,0.137667,9.762956,-0.020373,-0.005593,0.004261
1980-01-06T23:13:27.602880658Z,-0.405817,0.172383,9.782109,0.001198,-0.007324,-0.012783
1980-01-06T23:13:27.622769356Z,-0.332794,0.135272,9.691130,-0.002796,-0.008655,-0.021305
1980-01-06T23:13:27.642651127Z,-0.566229,0.087388,9.715072,0.009454,-0.009321,-0.022371
1980-01-06T23:13:27.662473835Z,-0.549469,0.058658,9.691130,-0.014514,0.005859,-0.018109
1980-01-06T23:13:27.682365918Z,-0.280122,0.198719,9.806051,0.014514,-0.014115,-0.004261
1980-01-06T23:13:27.702231804Z,-0.675165,0.087388,9.724648,-0.017843,-0.003063,-0.002131
1980-01-06T23:13:27.722074929Z,-0.361524,0.129287,9.834782,0.003329,-0.006924,-0.013848
1980-01-06T23:13:27.741971856Z,-0.296881,0.237026,9.700706,0.003196,-0.011318,-0.005326
1980-01-06T23:13:27.761842533Z,-0.588974,0.045490,9.671976,-0.009721,-0.002397,-0.019175
1980-01-06T23:13:27.781691022Z,-0.499191,0.128090,9.705495,-0.007191,-0.002264,-0.008522
1980-01-06T23:13:27.801573366Z,-0.332794,0.168791,9.757569,-0.002131,-0.004661,-0.011185
1980-01-06T23:13:27.821455814Z,-0.495600,0.057461,9.728839,-0.003595,-0.009454,-0.018642
1980-01-06T23:13:27.841309199Z,-0.470461,0.130484,9.824607,0.008788,-0.009454,-0.027164
1980-01-06T23:13:27.861173522Z,-0.171185,0.264559,9.743204,0.000932,-0.008655,-0.009055
1980-01-06T23:13:27.881043001Z,-0.391452,0.164003,9.757569,0.014115,-0.012384,-0.015446
1980-01-06T23:13:27.900914668Z,-0.246603,0.228646,9.728839,-0.004527,-0.004128,-0.017577
1980-01-06T23:13:27.920793366Z,-0.369904,0.174777,9.709685,0.004927,-0.008522,-0.016512
1980-01-06T23:13:27.940647689Z,-0.181959,0.269348,9.704897,-0.006924,-0.009854,0.001598
1980-01-06T23:13:27.960523574Z,-0.329203,0.104148,9.556456,-0.023036,-0.005193,-0.017577
1980-01-06T23:13:27.980393991Z,-0.193930,0.293290,9.771935,0.019042,-0.013582,-0.017577
1980-01-06T23:13:28.000257793Z,-0.454898,0.158017,9.704897,0.005060,-0.011718,-0.029295
1980-01-06T23:13:28.020136751Z,-0.345962,0.205901,9.819818,0.009587,-0.011851,-0.027164
1980-01-06T23:13:28.040004512Z,-0.396240,0.088585,9.613917,-0.008389,-0.002397,-0.025034
1980-01-06T23:13:28.059870762Z,-0.220267,0.262165,9.743204,0.013582,-0.016378,-0.005859
1980-01-06T23:13:28.079749303Z,-0.515950,0.094571,9.709685,-0.015979,-0.005060,-0.017577
1980-01-06T23:13:28.099609616Z,-0.385466,0.144849,9.776723,-0.017843,-0.002929,-0.015446
1980-01-06T23:13:28.119459876Z,-0.322020,0.219069,9.767146,0.008123,-0.009987,-0.015446
1980-01-06T23:13:28.139371387Z,-0.289698,0.243011,9.700109,-0.001198,-0.007324,-0.027164
1980-01-06T23:13:28.159219512Z,-0.423774,0.111330,9.724051,0.000533,-0.009321,-0.019707
1980-01-06T23:13:28.179052481Z,-0.325611,0.191536,9.700109,0.001065,-0.005859,-0.045274
1980-01-06T23:13:28.198935241Z,-0.343568,0.201113,9.747993,0.013982,-0.014514,-0.025034
1980-01-06T23:13:28.218843678Z,-0.418985,0.152032,9.714474,0.007191,-0.012517,-0.030360
1980-01-06T23:13:28.238690397Z,-0.407014,0.164003,9.733627,-0.001465,-0.008788,-0.030360
1980-01-06T23:13:28.258590866Z,-0.436942,0.131681,9.733028,-0.010653,-0.005992,-0.029827
1980-01-06T23:13:28.278433887Z,-0.377087,0.162806,9.728240,-0.019175,-0.004394,-0.017044
1980-01-06T23:13:28.298290345Z,-0.407014,0.105345,9.704298,-0.009987,-0.004794,-0.037284
1980-01-06T23:13:28.318177116Z,-0.384269,0.202310,9.737817,-0.009854,-0.003595,-0.028762
1980-01-06T23:13:28.338062637Z,-0.451307,0.079009,9.705495,-0.006924,-0.007324,-0.028762
1980-01-06T23:13:28.357912741Z,-0.301669,0.237026,9.767744,0.012117,-0.011851,-0.035154
1980-01-06T23:13:28.377765137Z,-0.497994,0.099359,9.729437,0.004128,-0.004794,-0.045806
1980-01-06T23:13:28.397655241Z,-0.466869,0.116119,9.743204,-0.019175,0.000799,-0.021838
1980-01-06T23:13:28.417532793Z,-0.319626,0.244209,9.757569,0.008655,-0.010653,-0.014381
1980-01-06T23:13:28.437512272Z,-0.345962,0.239420,9.776723,0.019441,-0.016112,-0.006924
1980-01-06T23:13:28.457268626Z,-0.384269,0.184354,9.733627,0.003329,-0.011851,-0.016512
1980-01-06T23:13:28.477098730Z,-0.360327,0.215478,9.752781,0.001731,-0.011718,-0.020773
1980-01-06T23:13:28.497019355Z,-0.349553,0.198719,9.690532,-0.000133,-0.011185,-0.022903
1980-01-06T23:13:28.516851126Z,-0.310049,0.228646,9.752781,0.000666,-0.010786,-0.025034
1980-01-06T23:13:28.536724564Z,-0.344765,0.208296,9.710283,-0.001864,-0.010253,-0.025566
1980-01-06T23:13:28.556589407Z,-0.360327,0.167594,9.748590,-0.002264,-0.008123,-0.019175
1980-01-06T23:13:28.576480189Z,-0.354342,0.183156,9.710283,-0.004927,-0.007856,-0.017044
1980-01-06T23:13:28.596341907Z,-0.380678,0.184354,9.753379,-0.002264,-0.007057,-0.017044
1980-01-06T23:13:28.616199355Z,-0.378284,0.189142,9.694122,-0.003728,-0.008922,-0.017577
1980-01-06T23:13:28.636054095Z,-0.380678,0.162806,9.747993,-0.004927,-0.011452,-0.017577
1980-01-06T23:13:28.655926439Z,-0.378284,0.122104,9.722853,0.003329,-0.015979,-0.019707
1980-01-06T23:13:28.675793678Z,-0.660800,-0.177171,9.742006,-0.001731,-0.008522,-0.056992
1980-01-06T23:13:28.695641751Z,-0.330400,0.189142,9.718064,-0.005859,-0.003196,-0.096406
1980-01-06T23:13:28.715579147Z,-0.316035,0.337582,9.708488,0.005193,-0.008788,-0.045274
1980-01-06T23:13:28.735406491Z,-0.385466,0.136469,9.695320,-0.008655,-0.005992,-0.035686
1980-01-06T23:13:28.755304407Z,-0.468066,0.083797,9.767146,-0.005593,-0.004394,-0.025034
1980-01-06T23:13:28.775145189Z,-0.445322,0.123301,9.733627,-0.000266,-0.005992,-0.036752
1980-01-06T23:13:28.814889407Z,-0.417788,0.165200,9.691130,-0.017044,-0.005726,-0.020240
1980-01-06T23:13:28.834752741Z,-0.316035,0.243011,9.762956,0.003728,-0.010786,-0.022371
1980-01-06T23:13:28.854630814Z,-0.386664,0.159214,9.715072,-0.000399,-0.006525,-0.021305
1980-01-06T23:13:28.874483105Z,-0.341174,0.228646,9.782109,-0.003995,-0.006791,-0.021305
1980-01-06T23:13:28.894334876Z,-0.356736,0.214281,9.715072,-0.003595,-0.009188,-0.018109
1980-01-06T23:13:28.914247220Z,-0.366313,0.171185,9.705495,-0.009055,-0.010253,-0.019175
1980-01-06T23:13:28.934089251Z,-0.372298,0.144849,9.714474,-0.004661,-0.010653,-0.019707
1980-01-06T23:13:28.953959199Z,-0.384269,0.155623,9.757569,0.001465,-0.010653,-0.020773
1980-01-06T23:13:28.973824199Z,-0.407014,0.142455,9.738416,-0.000799,-0.009587,-0.027164
1980-01-06T23:13:28.993698209Z,-0.428562,0.126893,9.728839,-0.008256,-0.006392,-0.042078
1980-01-06T23:13:29.013585657Z,-0.374693,0.201113,9.709685,-0.001997,-0.010120,-0.041013
1980-01-06T23:13:29.033436334Z,-0.393846,0.150835,9.714474,-0.001198,-0.008922,-0.033556
1980-01-06T23:13:29.053307011Z,-0.381875,0.155623,9.724051,-0.001198,-0.006658,-0.042078
1980-01-06T23:13:29.073173053Z,-0.347159,0.237026,9.747993,-0.002530,-0.006924,-0.041013
1980-01-06T23:13:29.093028261Z,-0.392649,0.131681,9.743204,-0.003728,-0.008922,-0.039947
1980-01-06T23:13:29.112894668Z,-0.426168,0.106542,9.719262,-0.005459,-0.005593,-0.053796
1980-01-06T23:13:29.132779355Z,-0.433351,0.119710,9.724051,-0.000932,-0.007590,-0.054861
1980-01-06T23:13:29.152645084Z,-0.328006,0.235829,9.757569,0.002530,-0.007723,-0.044208
1980-01-06T23:13:29.172521178Z,-0.311246,0.214281,9.685743,0.000666,-0.007457,-0.033556
1980-01-06T23:13:29.192384720Z,-0.379481,0.164003,9.709685,-0.001731,-0.007057,-0.030360
1980-01-06T23:13:29.212267324Z,-0.436942,0.125696,9.714474,-0.005992,-0.004794,-0.025034
1980-01-06T23:13:29.232138574Z,-0.301669,0.252588,9.747993,-0.004927,-0.005992,-0.022903
1980-01-06T23:13:29.251991334Z,-0.354342,0.197522,9.709685,-0.001731,-0.008123,-0.022903
1980-01-06T23:13:29.271873366Z,-0.378284,0.175974,9.738416,-0.007324,-0.007324,-0.021838
1980-01-06T23:13:29.291728678Z,-0.367510,0.181959,9.714474,-0.000000,-0.006924,-0.019707
1980-01-06T23:13:29.311579251Z,-0.377087,0.197522,9.709685,-0.005459,-0.004394,-0.018642
1980-01-06T23:13:29.331536334Z,-0.374693,0.185551,9.710283,-0.006392,-0.003462,-0.015979
1980-01-06T23:13:29.351384772Z,-0.373495,0.159214,9.739014,-0.007457,-0.002264,-0.014914
1980-01-06T23:13:29.371220918Z,-0.389058,0.171185,9.734225,-0.005859,-0.002796,-0.015979
1980-01-06T23:13:29.391097480Z,-0.378284,0.178368,9.719860,-0.013316,-0.001997,-0.015979
1980-01-06T23:13:29.410968053Z,-0.401029,0.156820,9.734225,-0.005992,-0.004527,-0.015979
1980-01-06T23:13:29.430825553Z,-0.393846,0.158017,9.734225,0.002397,-0.006525,-0.014914
1980-01-06T23:13:29.450742793Z,-0.393846,0.162806,9.727641,0.004128,-0.007457,-0.015446
1980-01-06T23:13:29.470565970Z,-0.379481,0.159214,9.732430,-0.000666,-0.007191,-0.016512
1980-01-06T23:13:29.490425449Z,-0.391452,0.153229,9.703699,0.005459,-0.010653,-0.016512
1980-01-06T23:13:29.510327688Z,-0.374693,0.146046,9.708488,-0.001997,-0.008256,-0.015446
1980-01-06T23:13:29.530166803Z,-0.402226,0.161609,9.718064,0.005992,-0.010519,-0.016512
1980-01-06T23:13:29.550063990Z,-0.405817,0.172383,9.751583,0.012117,-0.011318,-0.015446
1980-01-06T23:13:29.569935345Z,-0.384269,0.185551,9.713276,0.001198,-0.010786,-0.014381
1980-01-06T23:13:29.589783470Z,-0.378284,0.158017,9.700706,-0.001065,-0.008655,-0.013848
1980-01-06T23:13:29.609671907Z,-0.381875,0.153229,9.691130,0.004128,-0.007856,-0.012783
1980-01-06T23:13:29.629529980Z,-0.389058,0.172383,9.739014,0.003995,-0.006924,-0.013848
1980-01-06T23:13:29.649372949Z,-0.392649,0.197522,9.739014,0.000266,-0.005992,-0.014914
1980-01-06T23:13:29.669250449Z,-0.387861,0.169988,9.748590,-0.008389,-0.004527,-0.014914
1980-01-06T23:13:29.689129824Z,-0.387861,0.173580,9.719860,-0.006258,-0.007057,-0.015979
1980-01-06T23:13:29.728873053Z,-0.396240,0.148441,9.724648,-0.007590,-0.006125,-0.015979
1980-01-06T23:13:29.748727584Z,-0.392649,0.161609,9.743204,0.002663,-0.007856,-0.015446
1980-01-06T23:13:29.768625865Z,-0.395043,0.167594,9.709685,0.003728,-0.007723,-0.016512
1980-01-06T23:13:29.788457376Z,-0.385466,0.181959,9.733627,0.001997,-0.005193,-0.016512
1980-01-06T23:13:29.808349928Z,-0.377087,0.189142,9.709685,-0.000666,-0.007457,-0.016512
1980-01-06T23:13:29.828217949Z,-0.387861,0.152032,9.728839,-0.001997,-0.005193,-0.016512
1980-01-06T23:13:29.848094719Z,-0.389058,0.202310,9.704897,-0.001864,-0.003462,-0.015446
1980-01-06T23:13:29.867926178Z,-0.402226,0.201113,9.738416,0.000000,0.000000,-0.015446
1980-01-06T23:13:29.887823365Z,-0.396240,0.208296,9.714474,-0.012783,0.003196,-0.016512
1980-01-06T23:13:29.907714667Z,-0.378284,0.141258,9.728839,-0.016112,-0.000533,-0.015446
1980-01-06T23:13:29.927548469Z,-0.396240,0.171185,9.700706,-0.009321,-0.002796,-0.014914
1980-01-06T23:13:29.947426438Z,-0.415394,0.169988,9.739014,-0.013982,-0.002397,-0.014914
1980-01-06T23:13:29.967334667Z,-0.399832,0.156820,9.729437,-0.008389,-0.005992,-0.015979
1980-01-06T23:13:29.987148469Z,-0.391452,0.147243,9.739014,-0.000799,-0.005593,-0.014914
1980-01-06T23:13:30.007047167Z,-0.391452,0.175974,9.733627,-0.004927,-0.005593,-0.015446
1980-01-06T23:13:30.026895344Z,-0.414197,0.169988,9.747993,-0.009321,-0.004927,-0.015446
1980-01-06T23:13:30.046809094Z,-0.396240,0.149638,9.704897,-0.003595,-0.005193,-0.015446
1980-01-06T23:13:30.066638938Z,-0.399832,0.164003,9.733627,-0.006924,-0.001997,-0.015446
1980-01-06T23:13:30.086508834Z,-0.403423,0.154426,9.704897,-0.013183,-0.002397,-0.014381
1980-01-06T23:13:30.106358261Z,-0.427365,0.138864,9.748590,-0.014514,-0.002663,-0.014914
1980-01-06T23:13:30.126255292Z,-0.414197,0.130484,9.705495,-0.007057,-0.004527,-0.013848
1980-01-06T23:13:30.146099042Z,-0.410606,0.168791,9.729437,-0.012251,-0.007324,-0.014914
1980-01-06T23:13:30.165991490Z,-0.408211,0.167594,9.695918,-0.012916,-0.003862,-0.015979
1980-01-06T23:13:30.185851646Z,-0.392649,0.171185,9.743802,-0.010120,-0.004794,-0.015979
1980-01-06T23:13:30.205734563Z,-0.407014,0.142455,9.703699,-0.007457,-0.004527,-0.015446
1980-01-06T23:13:30.225600501Z,-0.402226,0.167594,9.761160,-0.005593,-0.005326,-0.015446
1980-01-06T23:13:30.245443938Z,-0.409408,0.140061,9.742006,-0.006658,-0.005326,-0.015446
1980-01-06T23:13:30.265341438Z,-0.407014,0.144849,9.742006,-0.011052,-0.005060,-0.015446
1980-01-06T23:13:30.285192740Z,-0.404620,0.095768,9.689334,-0.003462,-0.004128,-0.016512
1980-01-06T23:13:30.305085501Z,-0.413000,0.147243,9.718064,-0.009587,-0.004927,-0.015446
1980-01-06T23:13:30.344810657Z,0.237026,-0.122104,9.810242,-0.010519,-0.025833,0.065514
1980-01-06T23:13:30.364654459Z,-0.549469,0.210690,9.676167,-0.015579,-0.014647,0.045274
1980-01-06T23:13:30.384539303Z,-0.683545,0.264559,9.758167,0.002796,-0.006658,-0.018109
1980-01-06T23:13:30.404427219Z,-0.347159,0.196325,9.715072,0.002663,-0.015979,-0.015979
1980-01-06T23:13:30.424280344Z,-0.956484,0.316035,9.715072,-0.011052,0.001598,-0.005326
1980-01-06T23:13:30.444149094Z,-0.429759,0.086191,9.786898,-0.011984,0.000000,-0.014914
1980-01-06T23:13:30.464013834Z,-0.311246,0.120907,9.719860,-0.019308,-0.001731,-0.008522
1980-01-06T23:13:30.483887219Z,-0.313640,0.147243,9.724648,-0.014781,-0.007989,0.007457
1980-01-06T23:13:30.503739980Z,-0.446519,0.154426,9.681553,-0.008655,-0.007856,0.004261
1980-01-06T23:13:30.523628469Z,-0.393846,0.137667,9.691130,-0.005459,-0.006791,-0.013848
1980-01-06T23:13:30.543509303Z,-0.375890,0.156820,9.729437,-0.009721,-0.008522,-0.015979
1980-01-06T23:13:30.563389823Z,-0.231040,0.169988,9.734225,-0.015846,-0.012251,-0.011718
1980-01-06T23:13:30.583322063Z,-0.160412,0.199916,9.734225,-0.003862,-0.017843,0.003196
1980-01-06T23:13:30.603073521Z,-0.706290,0.031125,9.680356,-0.019707,-0.001864,-0.000000
1980-01-06T23:13:30.622990605Z,-0.410606,0.114922,9.737817,-0.017177,0.002530,-0.010653
1980-01-06T23:13:30.642842896Z,-0.368707,0.191536,9.728240,0.001598,-0.011851,-0.014914
1980-01-06T23:13:30.662713834Z,-0.624887,0.068235,9.661202,-0.011718,-0.009587,-0.022371
1980-01-06T23:13:30.682525605Z,-0.004788,0.239420,9.795278,0.018376,-0.017177,-0.015979
1980-01-06T23:13:30.702461802Z,-0.810437,0.023942,9.680356,-0.004661,-0.000266,-0.017044
1980-01-06T23:13:30.722288521Z,-0.529119,0.088585,9.743802,-0.017311,0.007057,-0.015979
1980-01-06T23:13:30.742159980Z,-0.323217,0.162806,9.719860,-0.011318,-0.004527,-0.014914
1980-01-06T23:13:30.762004563Z,0.338780,0.410606,9.743802,0.023569,-0.026898,-0.005326
1980-01-06T23:13:30.781887375Z,-0.706290,0.061052,9.700706,-0.001598,-0.007723,-0.044741
1980-01-06T23:13:30.801774980Z,-0.324414,0.134075,9.748590,-0.007989,-0.011585,-0.029827
1980-01-06T23:13:30.821659771Z,-0.985214,-0.128090,9.580997,-0.029561,0.006125,0.007457
1980-01-06T23:13:30.841538990Z,0.017957,0.320823,9.786898,0.007057,-0.012783,-0.014914
1980-01-06T23:13:30.861389198Z,-0.893037,0.081403,9.873089,0.015313,-0.012783,0.000000
1980-01-06T23:13:30.881222479Z,-0.658405,-0.002394,9.810840,-0.021705,-0.000533,-0.053263
1980-01-06T23:13:30.901168417Z,-0.209493,0.128090,9.719860,-0.010653,-0.002264,-0.039415
1980-01-06T23:13:30.940842792Z,-0.609324,0.171185,9.897031,-0.001864,-0.010653,0.002131
1980-01-06T23:13:30.960723729Z,-0.623690,0.007183,9.719860,-0.020906,-0.006791,-0.000000
1980-01-06T23:13:30.980560865Z,-0.424971,0.117316,9.782109,-0.010386,-0.003329,-0.017044
1980-01-06T23:13:31.000483573Z,-0.424971,0.136469,9.676764,-0.009454,-0.005459,-0.017044
1980-01-06T23:13:31.020324927Z,-0.379481,0.204704,9.825205,0.011318,-0.014381,-0.012783
1980-01-06T23:13:31.040168677Z,-0.245406,0.213084,9.652822,0.019308,-0.022770,-0.005326
1980-01-06T23:13:31.060057375Z,-0.703895,-0.035913,9.695918,-0.016112,-0.000533,-0.011718
1980-01-06T23:13:31.099927844Z,-0.357933,0.167594,9.700706,-0.012117,-0.006525,-0.005326
1980-01-06T23:13:31.119673313Z,-0.233435,0.186748,9.691130,0.003595,-0.012517,0.008522
1980-01-06T23:13:31.139534406Z,-0.474052,0.098162,9.777321,-0.012384,-0.007590,-0.024501
1980-01-06T23:13:31.159421802Z,-0.408211,0.071826,9.748590,-0.002663,-0.009188,-0.037284
1980-01-06T23:13:31.179260969Z,-0.221464,0.274136,9.691130,0.016645,-0.015313,-0.023436
1980-01-06T23:13:31.199155500Z,-0.532710,0.022745,9.710283,-0.001065,-0.007856,-0.021305
1980-01-06T23:13:31.219011177Z,-0.471658,0.067038,9.772532,-0.002796,-0.012384,-0.018109
1980-01-06T23:13:31.238879511Z,-0.411803,0.129287,9.748590,0.018642,-0.009721,-0.035154
1980-01-06T23:13:31.258762740Z,-0.347159,0.144849,9.734225,0.005726,-0.010253,-0.039415
1980-01-06T23:13:31.278627948Z,-0.274136,0.190339,9.734225,0.006525,-0.010386,-0.038349
1980-01-06T23:13:31.298525083Z,-0.531513,0.002394,9.705495,-0.026632,-0.000932,-0.041545
1980-01-06T23:13:31.318372323Z,-0.407014,0.117316,9.729437,-0.011185,-0.009987,-0.022371
1980-01-06T23:13:31.338218990Z,-0.471658,-0.002394,9.676764,-0.016245,-0.010519,-0.011718
1980-01-06T23:13:31.358074458Z,-0.409408,0.068235,9.705495,0.002663,-0.010919,-0.013848
1980-01-06T23:13:31.377944875Z,-0.430956,0.075417,9.723751,0.019574,-0.015979,-0.014914
1980-01-06T23:13:31.397856333Z,-0.409408,0.081403,9.665392,0.014914,-0.008655,-0.014914
1980-01-06T23:13:31.417732115Z,-0.397437,0.124498,9.728539,0.011984,-0.007324,-0.015979
1980-01-06T23:13:31.437570604Z,-0.393846,0.130484,9.704597,0.002796,-0.006525,-0.014914
1980-01-06T23:13:31.457449927Z,-0.393846,0.114922,9.738116,-0.009321,-0.008123,-0.015979
1980-01-06T23:13:31.477370500Z,-0.402226,0.106542,9.718963,-0.011718,-0.003063,-0.017044
1980-01-06T23:13:31.497196542Z,-0.416591,0.118513,9.776423,-0.021172,-0.001997,-0.017044
1980-01-06T23:13:31.517059510Z,-0.422577,0.077812,9.734525,-0.026232,0.000266,-0.015979
1980-01-06T23:13:31.536895552Z,-0.413000,0.104148,9.724948,-0.004394,-0.003063,-0.015979
1980-01-06T23:13:31.556788938Z,-0.420182,0.062249,9.672276,-0.007057,-0.004261,-0.015979
1980-01-06T23:13:31.576663365Z,-0.423774,0.077812,9.681852,-0.000666,-0.009188,-0.014914
1980-01-06T23:13:31.596521385Z,-0.387861,0.100556,9.720160,0.007590,-0.010919,-0.014914
1980-01-06T23:13:31.616395708Z,-0.417788,0.116119,9.758467,0.007723,-0.008788,-0.014914
1980-01-06T23:13:31.636256802Z,-0.409408,0.113725,9.737218,0.004927,-0.008788,-0.014914
1980-01-06T23:13:31.656135917Z,-0.422577,0.112527,9.708488,0.005726,-0.014781,-0.014914
1980-01-06T23:13:31.715734719Z,-0.395043,0.117316,9.727641,0.010386,-0.012117,-0.015979
1980-01-06T23:13:31.735720292Z,-0.403423,0.130484,9.758167,0.004128,-0.008655,-0.015979
1980-01-06T23:13:31.755494562Z,-0.413000,0.087388,9.671976,-0.005326,-0.006258,-0.015979
1980-01-06T23:13:31.775341750Z,-0.426168,0.107739,9.738116,-0.005060,-0.010120,-0.015979
1980-01-06T23:13:31.795230552Z,-0.395043,0.111330,9.714174,-0.000000,-0.007989,-0.015979
1980-01-06T23:13:31.815091073Z,-0.422577,0.150835,9.752481,-0.005726,-0.010653,-0.015979
1980-01-06T23:13:31.854849823Z,-0.410606,0.140061,9.790789,0.003196,-0.008123,-0.015979
1980-01-06T23:13:31.874688885Z,-0.407014,0.080206,9.680655,0.001997,-0.008123,-0.015979
1980-01-06T23:13:31.894589875Z,-0.405817,0.110133,9.675867,-0.005326,-0.007324,-0.017044
1980-01-06T23:13:31.914435448Z,-0.402226,0.111330,9.742905,-0.005992,-0.003329,-0.014914
1980-01-06T23:13:31.934265760Z,-0.410606,0.117316,9.776423,-0.011185,-0.004794,-0.017044
1980-01-06T23:13:31.954167687Z,-0.421380,0.136469,9.781212,0.000533,-0.004661,-0.015979
1980-01-06T23:13:31.974061177Z,-0.413000,0.107739,9.709386,-0.007989,-0.009321,-0.015979
1980-01-06T23:13:31.993921125Z,-0.395043,0.095768,9.675867,-0.003063,-0.009055,-0.015979
1980-01-06T23:13:32.013774875Z,-0.420182,0.111330,9.699510,0.001198,-0.008655,-0.014914
1980-01-06T23:13:32.033607427Z,-0.395043,0.098162,9.708488,-0.004261,-0.005992,-0.015979
1980-01-06T23:13:32.053516073Z,-0.403423,0.111330,9.737218,0.003063,-0.003862,-0.015979
1980-01-06T23:13:32.073370083Z,-0.403423,0.152032,9.732430,0.002397,-0.002397,-0.015979
1980-01-06T23:13:32.093276958Z,-0.415394,0.110133,9.729437,-0.001731,-0.004927,-0.015979
1980-01-06T23:13:32.113145031Z,-0.414197,0.108936,9.715072,0.003728,-0.004927,-0.015979
1980-01-06T23:13:32.152857948Z,-0.373495,0.159214,9.892242,0.023835,-0.001065,-0.151267
1980-01-06T23:13:32.172718156Z,-0.432153,0.074220,9.685444,-0.016645,-0.011318,-0.034088
1980-01-06T23:13:32.192561073Z,-0.409408,0.119710,9.713276,0.006525,-0.009321,-0.051133
1980-01-06T23:13:32.212475812Z,-0.393846,0.094571,9.703699,0.002663,-0.005193,-0.068177
1980-01-06T23:13:32.232344250Z,-0.416591,0.129287,9.737218,-0.007590,-0.004794,-0.046872
1980-01-06T23:13:32.252204041Z,-0.420182,0.135272,9.775525,0.001198,-0.007723,-0.061785
1980-01-06T23:13:32.272075135Z,-0.384269,0.146046,9.775525,0.002264,-0.014514,-0.067112
1980-01-06T23:13:32.291935083Z,-0.428562,0.028730,9.686641,-0.013183,-0.010919,-0.029827
1980-01-06T23:13:32.311814562Z,-0.407014,0.090980,9.677064,-0.011718,-0.007324,-0.021305
1980-01-06T23:13:32.331696073Z,-0.415394,0.111330,9.744102,-0.002929,-0.007324,-0.017044
1980-01-06T23:13:32.351535031Z,-0.415394,0.118513,9.734525,-0.000799,-0.005459,-0.015979
1980-01-06T23:13:32.371438468Z,-0.414197,0.138864,9.746795,-0.011052,-0.005726,-0.017044
1980-01-06T23:13:32.391331750Z,-0.410606,0.119710,9.694122,-0.011052,-0.006392,-0.024501
1980-01-06T23:13:32.411174718Z,-0.401029,0.154426,9.718064,-0.000533,-0.007723,-0.038349
1980-01-06T23:13:32.431023104Z,-0.329203,0.319626,9.761160,0.007057,-0.013848,-0.049002
1980-01-06T23:13:32.450932166Z,-0.316035,0.161609,9.684546,-0.001065,-0.010386,-0.042611
1980-01-06T23:13:32.470768104Z,-0.441730,0.044293,9.689334,-0.007457,-0.005726,-0.030893
1980-01-06T23:13:32.490658104Z,-0.466869,0.049081,9.647137,-0.012117,-0.003196,-0.045806
1980-01-06T23:13:32.510505968Z,-0.386664,0.141258,9.728539,-0.002530,-0.001465,-0.058589
1980-01-06T23:13:32.530357166Z,-0.387861,0.308852,9.776423,0.029561,-0.012783,-0.107592
1980-01-06T23:13:32.550247062Z,-0.331597,0.300472,9.742905,0.028363,-0.013316,-0.128897
1980-01-06T23:13:32.570106073Z,-0.318429,0.153229,9.790789,0.015579,-0.018109,-0.063916
1980-01-06T23:13:32.609863104Z,-0.514753,-0.110133,9.753379,-0.021705,-0.001332,-0.029827
1980-01-06T23:13:32.629697218Z,-0.385466,0.136469,9.782109,-0.008788,-0.000133,-0.037284
1980-01-06T23:13:32.649612427Z,-0.457293,0.081403,9.748590,-0.011052,-0.002264,-0.022371
1980-01-06T23:13:32.669427791Z,-0.417788,0.120907,9.739014,-0.014781,-0.002530,-0.022371
1980-01-06T23:13:32.689307479Z,-0.413000,0.069432,9.686341,-0.002264,-0.005992,-0.022371
1980-01-06T23:13:32.709202739Z,-0.402226,0.110133,9.710283,0.000133,-0.006392,-0.024501
1980-01-06T23:13:32.729058468Z,-0.424971,0.099359,9.700706,-0.003329,-0.005726,-0.021305
1980-01-06T23:13:32.748924718Z,-0.407014,0.106542,9.762956,-0.007856,-0.004128,-0.021305
1980-01-06T23:13:32.768766125Z,-0.438139,0.132878,9.724648,0.005593,-0.005859,-0.033023
1980-01-06T23:13:32.788685604Z,-0.339977,0.269348,9.772532,0.032890,-0.009188,-0.112918
1980-01-06T23:13:32.808526802Z,-0.411803,0.174777,9.628881,-0.000266,-0.011052,-0.078829
1980-01-06T23:13:32.828381854Z,-0.362722,0.204704,9.815628,0.009987,-0.010120,-0.089482
1980-01-06T23:13:32.848266489Z,-0.481235,-0.095768,9.786898,-0.013316,0.000133,-0.094808
1980-01-06T23:13:32.868140031Z,-0.392649,0.126893,9.791686,-0.027297,-0.002530,-0.055394
1980-01-06T23:13:32.907889822Z,-0.384269,0.068235,9.710283,-0.015579,-0.005459,-0.038349
1980-01-06T23:13:32.927714927Z,-0.430956,0.058658,9.710283,-0.005060,-0.007057,-0.038349
1980-01-06T23:13:32.947594197Z,-0.423774,0.051475,9.648034,0.002131,-0.009587,-0.025566
1980-01-06T23:13:32.967542427Z,-0.414197,0.110133,9.729437,0.008389,-0.007989,-0.024501
1980-01-06T23:13:32.987315239Z,-0.408211,0.090980,9.743802,0.000266,-0.008655,-0.021305
1980-01-06T23:13:33.007211020Z,-0.414197,0.111330,9.772532,-0.001198,-0.009454,-0.020240
1980-01-06T23:13:33.027082791Z,-0.409408,0.105345,9.730335,-0.004394,-0.009721,-0.020773
1980-01-06T23:13:33.066785656Z,-0.415394,0.159214,9.701605,0.009055,-0.012650,-0.050600
1980-01-06T23:13:33.086708624Z,-0.445322,0.155623,9.658509,0.015979,-0.012384,-0.074036
1980-01-06T23:13:33.106542999Z,-0.379481,0.129287,9.706393,-0.000799,-0.013049,-0.066579
1980-01-06T23:13:33.126415968Z,-0.392649,0.328006,9.763854,0.033023,-0.013982,-0.128364
1980-01-06T23:13:33.146314874Z,-0.411803,0.142455,9.692327,-0.005593,-0.013183,-0.082824
1980-01-06T23:13:33.166140604Z,-0.390255,0.008380,9.753379,-0.019974,-0.012517,-0.046872
1980-01-06T23:13:33.186039302Z,-0.405817,0.013168,9.700706,-0.013049,-0.010653,-0.029827
1980-01-06T23:13:33.205885499Z,-0.423774,0.101754,9.758167,-0.002131,-0.008788,-0.023436
1980-01-06T23:13:33.225756906Z,-0.417788,0.124498,9.724648,0.000799,-0.011851,-0.026632
1980-01-06T23:13:33.245625708Z,-0.411803,0.089783,9.734225,0.003329,-0.011984,-0.022371
1980-01-06T23:13:33.265504770Z,-0.399832,0.083797,9.692028,0.003595,-0.012517,-0.018642
1980-01-06T23:13:33.285390551Z,-0.397437,0.141258,9.732430,0.001065,-0.010386,-0.018109
1980-01-06T23:13:33.305256437Z,-0.390255,0.138864,9.746795,-0.001997,-0.011585,-0.019175
1980-01-06T23:13:33.325104822Z,-0.393846,0.092177,9.708488,-0.001065,-0.011185,-0.019175
1980-01-06T23:13:33.364837062Z,-0.421380,0.131681,9.761160,0.008256,-0.007324,-0.026632
1980-01-06T23:13:33.384701645Z,-0.417788,0.156820,9.713276,0.010519,-0.004394,-0.051133
1980-01-06T23:13:33.404570291Z,-0.415394,0.120907,9.708488,0.003995,-0.008256,-0.050067
1980-01-06T23:13:33.424445968Z,-0.429759,0.114922,9.696816,-0.002530,-0.008256,-0.042078
1980-01-06T23:13:33.444307374Z,-0.465672,0.165200,9.711182,0.014248,-0.008788,-0.054861
1980-01-06T23:13:33.464197999Z,-0.355539,0.069432,9.725547,0.007324,-0.009188,-0.055926
1980-01-06T23:13:33.484041697Z,-0.486023,0.172383,9.739912,-0.002131,-0.009454,-0.050600
1980-01-06T23:13:33.503917999Z,-0.313640,0.112527,9.782109,0.007856,-0.006658,-0.085221
1980-01-06T23:13:33.523793728Z,-0.318429,0.035913,9.695918,0.003063,-0.012117,-0.031958
1980-01-06T23:13:33.543671020Z,-0.393846,0.136469,9.734225,0.002397,-0.009188,-0.022371
1980-01-06T23:13:33.563549406Z,-0.339977,0.065841,9.695918,0.009587,-0.007191,-0.033023
1980-01-06T23:13:33.583419093Z,-0.402226,0.124498,9.739014,0.000533,-0.009188,-0.021305
1980-01-06T23:13:33.603307322Z,-0.413000,0.132878,9.743802,-0.001198,-0.005593,-0.021305
1980-01-06T23:13:33.623124249Z,-0.393846,0.137667,9.743802,-0.001065,-0.005459,-0.020240
1980-01-06T23:13:33.643043676Z,-0.426168,0.164003,9.724648,-0.002796,-0.008788,-0.023436
1980-01-06T23:13:33.662880499Z,-0.420182,0.136469,9.695918,0.000266,-0.008655,-0.031958
1980-01-06T23:13:33.682735603Z,-0.366313,0.095768,9.691130,0.002530,-0.007723,-0.031958
1980-01-06T23:13:33.702621176Z,-0.407014,0.135272,9.739014,0.004527,-0.011185,-0.024501
1980-01-06T23:13:33.722491020Z,-0.432153,0.168791,9.724648,0.005459,-0.010653,-0.029827
1980-01-06T23:13:33.742352478Z,-0.535104,0.161609,9.729437,0.008655,-0.007191,-0.047937
1980-01-06T23:13:33.762207895Z,-0.415394,0.131681,9.710283,0.009987,-0.005859,-0.079895
1980-01-06T23:13:33.782106228Z,-0.433351,0.175974,9.715072,0.011052,-0.006392,-0.088417
1980-01-06T23:13:33.802005760Z,-0.301669,0.089783,9.719860,-0.002397,-0.012117,-0.047937
1980-01-06T23:13:33.821876228Z,-0.424971,0.129287,9.719860,-0.006392,-0.007989,-0.051133
1980-01-06T23:13:33.841707114Z,-0.464475,0.117316,9.734225,0.011052,-0.008522,-0.071373
1980-01-06T23:13:33.861557843Z,-0.399832,0.106542,9.729437,0.021172,-0.012251,-0.060720
1980-01-06T23:13:33.881458833Z,-0.435745,0.168791,9.758167,0.013848,-0.013582,-0.055394
1980-01-06T23:13:33.901318989Z,-0.448913,0.152032,9.743802,0.008389,-0.015047,-0.040480
1980-01-06T23:13:33.921175291Z,-0.318429,0.122104,9.724648,0.011318,-0.016645,-0.040480
1980-01-06T23:13:33.941050447Z,-0.470461,0.165200,9.686341,0.007590,-0.012251,-0.043676
1980-01-06T23:13:33.960966176Z,-0.718261,0.275333,9.724648,0.001598,0.007191,-0.091613
1980-01-06T23:13:33.980817635Z,-0.164003,0.050278,9.767744,0.005459,-0.015180,-0.051133
1980-01-06T23:13:34.000656020Z,-0.494403,0.204704,9.700706,-0.000266,-0.011185,-0.044741
1980-01-06T23:13:34.020539249Z,-0.502782,0.209493,9.743802,-0.003196,-0.003329,-0.055394
1980-01-06T23:13:34.040384874Z,-0.536301,0.292093,9.715072,0.002264,0.006258,-0.082025
1980-01-06T23:13:34.060278676Z,-0.671574,0.205901,9.734225,0.025167,-0.007590,-0.040480
1980-01-06T23:13:34.080103728Z,-0.343568,0.189142,9.780313,-0.020240,0.003995,-0.056459
1980-01-06T23:13:34.119861332Z,-0.450110,0.171185,9.689334,-0.005593,-0.005992,-0.058589
1980-01-06T23:13:34.139735134Z,-0.444124,0.130484,9.665392,-0.007989,-0.009587,-0.047937
1980-01-06T23:13:34.159604926Z,-0.372298,0.191536,9.722853,-0.012251,-0.004527,-0.054328
1980-01-06T23:13:34.179480812Z,-0.234632,0.014365,9.727641,-0.020373,-0.003862,-0.059655
1980-01-06T23:13:34.199381593Z,-0.278924,0.065841,9.775525,0.021971,-0.022237,-0.033023
1980-01-06T23:13:34.219218937Z,-0.617704,0.204704,9.670180,-0.005060,0.001731,-0.064981
1980-01-06T23:13:34.239096853Z,-0.354342,-0.013168,9.746795,0.011052,-0.018775,-0.034088
1980-01-06T23:13:34.258982374Z,-0.483629,0.211887,9.636662,0.001198,-0.008922,-0.050067
1980-01-06T23:13:34.278836541Z,-0.312443,0.149638,9.761160,-0.003995,0.000932,-0.046872
1980-01-06T23:13:34.298709041Z,-0.294487,0.089783,9.794679,0.012783,-0.021572,-0.026632
1980-01-06T23:13:34.318562843Z,-0.639252,0.258574,9.698911,-0.004794,-0.001864,-0.046872
1980-01-06T23:13:34.338424666Z,-0.386664,0.057461,9.722853,0.005593,-0.011052,-0.031958
1980-01-06T23:13:34.358299093Z,-0.256180,0.237026,9.636662,-0.013316,0.002131,-0.046872
1980-01-06T23:13:34.378181384Z,-0.418985,0.190339,9.810840,0.020639,-0.011718,-0.010653
1980-01-06T23:13:34.398055082Z,-0.177171,0.141258,9.762956,-0.004527,-0.011851,-0.002131
1980-01-06T23:13:34.417904145Z,-0.554258,0.185551,9.729437,0.011452,-0.009055,-0.010653
1980-01-06T23:13:34.437769041Z,-0.513556,0.166397,9.705495,-0.007723,0.001864,-0.008522
1980-01-06T23:13:34.457646489Z,-0.277727,0.136469,9.700706,-0.006258,-0.009721,0.001065
1980-01-06T23:13:34.477501905Z,-0.317232,0.225055,9.722853,-0.008922,-0.009454,-0.003196
1980-01-06T23:13:34.497392166Z,-0.391452,0.130484,9.761160,0.004128,-0.010253,-0.007457
1980-01-06T23:13:34.517252374Z,-0.374693,0.125696,9.742006,0.002397,-0.010653,-0.008522
1980-01-06T23:13:34.537120603Z,-0.578200,0.187945,9.708488,0.005060,-0.007457,-0.007457
1980-01-06T23:13:34.576852061Z,-0.539892,0.226252,9.720758,-0.004661,-0.005593,0.006924
1980-01-06T23:13:34.596704249Z,-0.381875,0.106542,9.770737,0.008522,-0.011452,0.006392
1980-01-06T23:13:34.616566332Z,-0.526724,0.165200,9.720758,0.008256,-0.008522,0.000533
1980-01-06T23:13:34.636471332Z,-0.378284,0.225055,9.754277,-0.012517,-0.002397,0.016512
1980-01-06T23:13:34.656337113Z,-0.454898,0.124498,9.730335,-0.006258,-0.010519,0.005859
1980-01-06T23:13:34.676217843Z,-0.328006,0.147243,9.701605,0.000266,-0.011585,0.010120
1980-01-06T23:13:34.696103988Z,-0.547075,0.161609,9.719860,0.013582,-0.007723,0.002131
1980-01-06T23:13:34.715941697Z,-0.229843,0.150835,9.753379,-0.006525,-0.007057,0.009587
1980-01-06T23:13:34.735813051Z,-0.440533,0.181959,9.652822,-0.001065,-0.010386,0.003196
1980-01-06T23:13:34.755686749Z,-0.356736,0.126893,9.724648,-0.000266,-0.009188,0.004261
1980-01-06T23:13:34.775576488Z,-0.536301,0.201113,9.715072,0.004527,-0.007457,0.001065
1980-01-06T23:13:34.795401593Z,-0.434548,0.173580,9.762956,-0.003329,-0.004927,0.009587
1980-01-06T23:13:34.815296176Z,-0.435745,0.147243,9.762956,0.005726,-0.011718,0.000000
1980-01-06T23:13:34.835147582Z,-0.420182,0.174777,9.705495,-0.006924,-0.006658,0.006392
1980-01-06T23:13:34.855047426Z,-0.350751,0.158017,9.734225,-0.000533,-0.007856,0.003196
1980-01-06T23:13:34.874895551Z,-0.563834,0.180762,9.739014,0.004261,-0.003995,0.001065
1980-01-06T23:13:34.894803311Z,-0.459687,0.196325,9.734225,-0.006125,0.000000,0.013848
1980-01-06T23:13:34.914639718Z,-0.231040,0.119710,9.758167,0.001997,-0.010253,0.015979
1980-01-06T23:13:34.934503988Z,-0.411803,0.221464,9.691130,-0.008922,-0.007590,0.020240
1980-01-06T23:13:34.954377113Z,-0.367510,0.135272,9.715072,-0.010120,-0.004661,0.033023
1980-01-06T23:13:34.974237895Z,-0.392649,0.148441,9.691130,-0.010519,-0.008922,0.028762
1980-01-06T23:13:34.994094145Z,-0.363919,0.220267,9.734225,0.000266,-0.010120,0.020240
1980-01-06T23:13:35.033803051Z,-0.378284,0.174777,9.734225,0.005992,-0.010519,0.009587
1980-01-06T23:13:35.053712738Z,-0.371101,0.171185,9.715072,0.002796,-0.008788,0.004261
1980-01-06T23:13:35.073588415Z,-0.414197,0.166397,9.705495,0.002796,-0.007856,0.004261
1980-01-06T23:13:35.093471645Z,-0.421380,0.190339,9.729437,-0.000932,-0.008256,0.005326
1980-01-06T23:13:35.113337113Z,-0.404620,0.185551,9.729437,-0.009454,-0.008655,0.012783
1980-01-06T23:13:35.133134092Z,-0.377087,0.161609,9.739014,0.000266,-0.010519,0.005326
1980-01-06T23:13:35.172933259Z,-0.387861,0.172383,9.734225,0.002663,-0.010653,-0.004261
1980-01-06T23:13:35.192771488Z,-0.409408,0.179565,9.695918,-0.005326,-0.007723,0.001065
1980-01-06T23:13:35.212631332Z,-0.368707,0.162806,9.753379,0.001065,-0.008522,-0.001065
1980-01-06T23:13:35.232494405Z,-0.409408,0.187945,9.734225,0.001332,-0.010120,-0.007457
1980-01-06T23:13:35.252365082Z,-0.447716,0.180762,9.739014,-0.002131,-0.009454,-0.006392
1980-01-06T23:13:35.272261019Z,-0.415394,0.173580,9.695918,-0.004527,-0.007856,0.002131
1980-01-06T23:13:35.292108259Z,-0.417788,0.146046,9.719860,-0.000133,-0.010253,0.001065
1980-01-06T23:13:35.311996644Z,-0.471658,0.156820,9.700706,-0.002796,-0.009454,0.010653
1980-01-06T23:13:35.331833155Z,-0.438139,0.166397,9.734225,0.000000,-0.007457,0.017044
1980-01-06T23:13:35.351729249Z,-0.518345,0.143652,9.777321,0.005459,-0.007723,0.025566
1980-01-06T23:13:35.371608259Z,-0.464475,0.150835,9.706393,-0.019175,-0.002264,0.047404
1980-01-06T23:13:35.391469040Z,-0.414197,0.178368,9.744700,0.000533,-0.011452,0.021838
1980-01-06T23:13:35.411316853Z,-0.258574,0.175974,9.663298,-0.008256,-0.011585,0.021838
1980-01-06T23:13:35.431199874Z,-0.469264,0.141258,9.672874,-0.009854,0.000799,0.025034
1980-01-06T23:13:35.451111176Z,-0.367510,0.187945,9.792584,0.007457,-0.011318,0.013316
1980-01-06T23:13:35.470918207Z,-0.331597,0.217872,9.686341,-0.001864,-0.013183,0.013848
1980-01-06T23:13:35.490816696Z,-0.392649,0.166397,9.743802,0.005326,-0.011718,0.006392
1980-01-06T23:13:35.510680967Z,-0.403423,0.184354,9.715072,-0.007191,-0.008123,0.015979
1980-01-06T23:13:35.530531071Z,-0.322020,0.205901,9.734225,0.000799,-0.011585,0.011718
1980-01-06T23:13:35.550411905Z,-0.372298,0.199916,9.700706,0.004661,-0.011984,0.005326
1980-01-06T23:13:35.570285446Z,-0.371101,0.180762,9.724648,0.002796,-0.010253,0.003196
1980-01-06T23:13:35.590163936Z,-0.410606,0.237026,9.748590,0.003462,-0.006791,0.000000
1980-01-06T23:13:35.610023519Z,-0.488417,0.164003,9.734225,0.001731,-0.007989,0.007457
1980-01-06T23:13:35.629882374Z,-0.314838,0.190339,9.729437,-0.006392,-0.006791,0.023436
1980-01-06T23:13:35.649742530Z,-0.418985,0.148441,9.686341,-0.003329,-0.006525,0.025566
1980-01-06T23:13:35.669657113Z,-0.360327,0.209493,9.732430,0.002131,-0.009188,0.015979
1980-01-06T23:13:35.689511957Z,-0.391452,0.189142,9.713276,-0.002131,-0.005726,0.023436
1980-01-06T23:13:35.709348467Z,-0.375890,0.223858,9.742006,0.001332,-0.009055,0.010653
1980-01-06T23:13:35.729246436Z,-0.428562,0.169988,9.718064,-0.002796,-0.009587,0.009587
1980-01-06T23:13:35.749096228Z,-0.420182,0.199916,9.732430,-0.005859,-0.007590,0.025566
1980-01-06T23:13:35.788878155Z,-0.403423,0.150835,9.698911,-0.001065,-0.006791,0.018109
1980-01-06T23:13:35.808712738Z,-0.439336,0.135272,9.711182,-0.008655,-0.003728,0.051665
1980-01-06T23:13:35.828577269Z,-0.389058,0.164003,9.706393,-0.012251,-0.005726,0.076166
1980-01-06T23:13:35.848430759Z,-0.391452,0.140061,9.739912,-0.001065,-0.006392,0.075101
1980-01-06T23:13:35.868334613Z,-0.416591,0.231040,9.730335,-0.004128,-0.009321,0.072971
1980-01-06T23:13:35.888191748Z,-0.379481,0.232238,9.753379,-0.005593,-0.009454,0.052198
1980-01-06T23:13:35.908050967Z,-0.368707,0.228646,9.695918,-0.009721,-0.007590,0.040480
1980-01-06T23:13:35.927913675Z,-0.391452,0.204704,9.715072,0.003462,-0.010519,0.010653
1980-01-06T23:13:35.947835498Z,-0.389058,0.186748,9.719860,-0.001332,-0.007590,0.009587
1980-01-06T23:13:35.967679821Z,-0.391452,0.193930,9.734225,-0.001997,-0.007457,0.006392
1980-01-06T23:13:35.987526748Z,-0.421380,0.186748,9.753379,-0.007723,-0.004261,0.039415
1980-01-06T23:13:36.007384873Z,-0.387861,0.207098,9.758167,-0.003329,-0.007856,0.040480
1980-01-06T23:13:36.027263832Z,-0.430956,0.160412,9.767744,0.002264,-0.008788,0.003196
1980-01-06T23:13:36.047162842Z,-0.404620,0.135272,9.653721,-0.026898,-0.006791,0.067644
1980-01-06T23:13:36.066997686Z,-0.387861,0.180762,9.746795,-0.013316,-0.003196,0.064981
1980-01-06T23:13:36.086864665Z,-0.380678,0.136469,9.701605,-0.014914,-0.006392,0.094276
1980-01-06T23:13:36.106718988Z,-0.384269,0.220267,9.823410,0.005326,-0.008522,0.054328
1980-01-06T23:13:36.126620342Z,-0.361524,0.142455,9.742006,-0.008389,-0.005859,0.060720
1980-01-06T23:13:36.146489300Z,-0.386664,0.178368,9.708488,-0.017044,-0.003595,0.136354
1980-01-06T23:13:36.166358727Z,-0.347159,0.215478,9.718064,0.004261,-0.004128,0.072438
1980-01-06T23:13:36.186224613Z,-0.476446,0.296881,9.732430,0.014781,-0.012783,0.042611
1980-01-06T23:13:36.206098467Z,-0.379481,0.132878,9.694122,-0.019574,-0.005726,0.071373
1980-01-06T23:13:36.245840602Z,-0.390255,0.181959,9.700706,0.008123,-0.009854,0.011718
1980-01-06T23:13:36.265641384Z,-0.396240,0.189142,9.739014,0.001598,-0.010519,-0.007457
1980-01-06T23:13:36.285554769Z,-0.405817,0.171185,9.715072,0.006525,-0.012251,-0.008522
1980-01-06T23:13:36.305446227Z,-0.401029,0.143652,9.719860,0.004394,-0.009055,0.009587
1980-01-06T23:13:36.325291175Z,-0.408211,0.204704,9.762956,0.010519,-0.008256,0.019175
1980-01-06T23:13:36.345176957Z,-0.392649,0.233435,9.753379,0.001997,-0.006392,-0.004261
1980-01-06T23:13:36.365066175Z,-0.368707,0.204704,9.753379,-0.012384,-0.002929,-0.010653
1980-01-06T23:13:36.384873988Z,-0.401029,0.177171,9.715072,-0.002530,-0.003728,-0.012783
1980-01-06T23:13:36.404753102Z,-0.401029,0.183156,9.695918,-0.003196,-0.003462,-0.012783
1980-01-06T23:13:36.424643154Z,-0.387861,0.171185,9.705495,0.000799,-0.008389,-0.009587
1980-01-06T23:13:36.444509457Z,-0.401029,0.193930,9.724648,-0.005992,-0.009587,-0.008522
1980-01-06T23:13:36.464409457Z,-0.384269,0.205901,9.751583,-0.004261,-0.008123,-0.011718
1980-01-06T23:13:36.484257582Z,-0.398635,0.185551,9.746795,-0.001731,-0.008256,-0.012783
1980-01-06T23:13:36.504127425Z,-0.399832,0.183156,9.703699,0.002929,-0.010253,-0.010653
1980-01-06T23:13:36.543872686Z,-0.393846,0.184354,9.722853,0.005992,-0.010653,-0.004261
1980-01-06T23:13:36.563760550Z,-0.395043,0.213084,9.730335,-0.003728,-0.007723,-0.005859
1980-01-06T23:13:36.583589977Z,-0.403423,0.196325,9.744700,-0.003595,-0.006791,-0.013316
1980-01-06T23:13:36.603464873Z,-0.393846,0.177171,9.711182,-0.008256,-0.006258,-0.015446
1980-01-06T23:13:36.623333259Z,-0.387861,0.185551,9.696816,0.002264,-0.007856,-0.015446
1980-01-06T23:13:36.643254300Z,-0.383072,0.202310,9.682451,-0.003462,-0.009454,-0.016512
1980-01-06T23:13:36.663078415Z,-0.389058,0.204704,9.711182,-0.015579,-0.008522,-0.016512
1980-01-06T23:13:36.702835759Z,-0.390255,0.184354,9.734225,-0.009321,-0.007723,-0.014914
1980-01-06T23:13:36.722689821Z,-0.397437,0.178368,9.724648,-0.012650,-0.008922,-0.015979
1980-01-06T23:13:36.742556748Z,-0.373495,0.185551,9.739014,-0.009188,-0.010786,-0.014914
1980-01-06T23:13:36.762402477Z,-0.397437,0.276530,9.691130,-0.043809,-0.018509,-0.015979
1980-01-06T23:13:36.782266852Z,-0.421380,0.138864,9.829993,-0.036752,-0.007457,-0.014914
1980-01-06T23:13:36.802143727Z,-0.181959,0.063446,9.451710,0.003728,-0.005992,-0.011718
1980-01-06T23:13:36.822067529Z,-0.499191,0.178368,9.892242,-0.064049,0.012783,-0.021305
1980-01-06T23:13:36.841896488Z,-0.250194,0.211887,9.609727,0.017843,0.003063,-0.015979
1980-01-06T23:13:36.861743519Z,-0.383072,0.191536,9.674969,-0.000000,-0.009321,-0.015979
1980-01-06T23:13:36.881627998Z,-0.420182,0.156820,9.732430,-0.001465,-0.004527,-0.015979
1980-01-06T23:13:36.901529196Z,-0.390255,0.140061,9.746795,-0.007324,-0.007057,-0.015979
1980-01-06T23:13:36.921392946Z,-0.405817,0.164003,9.708488,-0.002663,-0.007057,-0.015979
1980-01-06T23:13:36.941236696Z,-0.356736,0.292093,9.770737,0.036885,-0.027431,-0.014914
1980-01-06T23:13:36.961127373Z,-0.427365,0.065841,9.634567,-0.000799,-0.010519,-0.016512
1980-01-06T23:13:37.000860810Z,-0.399832,0.180762,9.773431,-0.005593,-0.007057,-0.016512
1980-01-06T23:13:37.020700081Z,-0.392649,0.166397,9.739912,-0.005726,-0.006791,-0.015446
1980-01-06T23:13:37.040585498Z,-0.405817,0.184354,9.720758,-0.006125,-0.006525,-0.015446
1980-01-06T23:13:37.060431696Z,-0.409408,0.158017,9.715970,-0.002397,-0.007324,-0.016512
1980-01-06T23:13:37.080328363Z,-0.413000,0.165200,9.720758,-0.002663,-0.007723,-0.015446
1980-01-06T23:13:37.100201331Z,-0.387861,0.164003,9.715970,-0.001332,-0.006924,-0.015446
1980-01-06T23:13:37.120075863Z,-0.399832,0.161609,9.744700,-0.002131,-0.006658,-0.015446
1980-01-06T23:13:37.139907321Z,-0.404620,0.155623,9.715970,-0.001997,-0.008788,-0.015446
1980-01-06T23:13:37.159782633Z,-0.399832,0.164003,9.720758,-0.002663,-0.009454,-0.016512
1980-01-06T23:13:37.179660446Z,-0.401029,0.156820,9.739014,-0.002131,-0.007856,-0.014914
1980-01-06T23:13:37.199499144Z,-0.395043,0.165200,9.743802,-0.002397,-0.007457,-0.015979
1980-01-06T23:13:37.219410446Z,-0.396240,0.160412,9.715072,-0.003595,-0.007057,-0.015979
1980-01-06T23:13:37.239238206Z,-0.401029,0.160412,9.715970,-0.001065,-0.007191,-0.016512
1980-01-06T23:13:37.259168727Z,-0.402226,0.168791,9.706393,-0.001198,-0.008123,-0.016512
1980-01-06T23:13:37.279037894Z,-0.401029,0.174777,9.749489,-0.002929,-0.008123,-0.015446
1980-01-06T23:13:37.298859456Z,-0.395043,0.154426,9.715970,-0.003196,-0.008123,-0.015446
1980-01-06T23:13:37.318736123Z,-0.397437,0.153229,9.706393,-0.003862,-0.008522,-0.016512
1980-01-06T23:13:37.338598571Z,-0.392649,0.142455,9.706393,-0.002530,-0.007856,-0.015446
1980-01-06T23:13:37.358491800Z,-0.397437,0.154426,9.720758,-0.001997,-0.009587,-0.016512
1980-01-06T23:13:37.378390758Z,-0.399832,0.162806,9.730335,-0.001465,-0.008123,-0.016512
1980-01-06T23:13:37.398244769Z,-0.396240,0.156820,9.735124,-0.002397,-0.007457,-0.016512
1980-01-06T23:13:37.418063623Z,-0.408211,0.159214,9.715970,-0.002796,-0.009188,-0.016512
1980-01-06T23:13:37.457833623Z,-0.397437,0.153229,9.725547,-0.003595,-0.008389,-0.016512
1980-01-06T23:13:37.477675914Z,-0.393846,0.168791,9.715970,-0.003063,-0.008522,-0.016512
1980-01-06T23:13:37.497515654Z,-0.405817,0.154426,9.720758,-0.002530,-0.007590,-0.015446
1980-01-06T23:13:37.517418258Z,-0.403423,0.167594,9.735124,-0.001598,-0.007191,-0.016512
1980-01-06T23:13:37.537290237Z,-0.391452,0.138864,9.725547,-0.003862,-0.006658,-0.015446
1980-01-06T23:13:37.557184560Z,-0.396240,0.160412,9.720758,-0.004794,-0.006258,-0.016512
1980-01-06T23:13:37.577035862Z,-0.395043,0.129287,9.711182,-0.005193,-0.008256,-0.016512
1980-01-06T23:13:37.596871852Z,-0.387861,0.155623,9.720758,-0.004261,-0.007191,-0.016512
1980-01-06T23:13:37.616762946Z,-0.391452,0.154426,9.711182,-0.003595,-0.007191,-0.016512
1980-01-06T23:13:37.636624196Z,-0.393846,0.149638,9.720758,-0.003063,-0.007590,-0.015446
1980-01-06T23:13:37.656534821Z,-0.405817,0.143652,9.720758,-0.001198,-0.007057,-0.015446
1980-01-06T23:13:37.676359352Z,-0.405817,0.162806,9.725547,-0.000266,-0.005459,-0.015446
1980-01-06T23:13:37.696235654Z,-0.393846,0.150835,9.720758,-0.001065,-0.009321,-0.016512
1980-01-06T23:13:37.716080081Z,-0.404620,0.143652,9.759066,-0.005726,-0.006258,-0.016512
1980-01-06T23:13:37.735989769Z,-0.386664,0.137667,9.711182,-0.006658,-0.003595,-0.016512
1980-01-06T23:13:37.755788571Z,-0.408211,0.138864,9.692028,-0.004661,-0.009188,-0.016512
1980-01-06T23:13:37.775715914Z,-0.403423,0.146046,9.706393,-0.000666,-0.008922,-0.015446
1980-01-06T23:13:37.795584716Z,-0.404620,0.155623,9.711182,0.001198,-0.009454,-0.016512
1980-01-06T23:13:37.815430966Z,-0.405817,0.144849,9.687240,-0.000266,-0.010519,-0.016512
1980-01-06T23:13:37.835337789Z,-0.403423,0.148441,9.735124,0.000932,-0.008788,-0.015446
1980-01-06T23:13:37.855232893Z,-0.380678,0.160412,9.759066,-0.000000,-0.010253,-0.015446
1980-01-06T23:13:37.875059560Z,-0.396240,0.175974,9.754277,-0.003862,-0.008522,-0.016512
1980-01-06T23:13:37.894920341Z,-0.404620,0.149638,9.711182,-0.004394,-0.005459,-0.015446
1980-01-06T23:13:37.914809091Z,-0.392649,0.161609,9.711182,-0.003862,-0.008522,-0.016512
1980-01-06T23:13:37.934685550Z,-0.410606,0.160412,9.719860,-0.003862,-0.007723,-0.014914
1980-01-06T23:13:37.954550133Z,-0.398635,0.172383,9.729437,-0.003462,-0.006258,-0.015979
1980-01-06T23:13:37.974399768Z,-0.387861,0.158017,9.715072,-0.003595,-0.007590,-0.014914
1980-01-06T23:13:37.994268362Z,-0.407014,0.142455,9.729437,-0.003329,-0.007191,-0.014914
1980-01-06T23:13:38.014152581Z,-0.387861,0.149638,9.691130,-0.002796,-0.008522,-0.015979
1980-01-06T23:13:38.034028779Z,-0.402226,0.172383,9.734225,-0.002796,-0.008123,-0.015979
1980-01-06T23:13:38.053892216Z,-0.415394,0.143652,9.695918,-0.001864,-0.007457,-0.017044
1980-01-06T23:13:38.073756748Z,-0.398635,0.143652,9.719860,0.000533,-0.010253,-0.015979
1980-01-06T23:13:38.093627789Z,-0.411803,0.166397,9.684546,-0.001198,-0.009587,-0.014914
1980-01-06T23:13:38.113497893Z,-0.387861,0.156820,9.737218,-0.000133,-0.007324,-0.015979
1980-01-06T23:13:38.133343258Z,-0.403423,0.167594,9.698911,-0.002796,-0.009587,-0.015979
1980-01-06T23:13:38.153234716Z,-0.385466,0.155623,9.746795,-0.001465,-0.008389,-0.015979
1980-01-06T23:13:38.173103466Z,-0.390255,0.134075,9.718064,-0.003595,-0.007057,-0.015979
1980-01-06T23:13:38.192968258Z,-0.398635,0.156820,9.708488,-0.005193,-0.006791,-0.015979
1980-01-06T23:13:38.212823102Z,-0.390255,0.134075,9.684546,-0.003196,-0.007856,-0.014914
1980-01-06T23:13:38.232698831Z,-0.386664,0.159214,9.739014,-0.000799,-0.009321,-0.015979
1980-01-06T23:13:38.252569039Z,-0.384269,0.168791,9.772532,-0.002397,-0.007191,-0.015979
1980-01-06T23:13:38.272429352Z,-0.399832,0.171185,9.753379,-0.006392,-0.005459,-0.014914
1980-01-06T23:13:38.292334977Z,-0.395043,0.140061,9.691130,-0.003196,-0.007989,-0.015979
1980-01-06T23:13:38.312159404Z,-0.403423,0.159214,9.705495,-0.000799,-0.008788,-0.014914
1980-01-06T23:13:38.332055237Z,-0.379481,0.156820,9.739014,-0.001864,-0.007590,-0.015979
1980-01-06T23:13:38.351937112Z,-0.402226,0.172383,9.782109,-0.002796,-0.007590,-0.014914
1980-01-06T23:13:38.371802372Z,-0.424971,0.173580,9.729437,-0.003995,-0.009454,-0.015979
1980-01-06T23:13:38.391651175Z,-0.378284,0.128090,9.724648,-0.001731,-0.007457,-0.015979
1980-01-06T23:13:38.411503206Z,-0.378284,0.147243,9.695918,-0.003329,-0.008256,-0.015979
1980-01-06T23:13:38.431387425Z,-0.397437,0.165200,9.710283,-0.000000,-0.008389,-0.015979
1980-01-06T23:13:38.451305602Z,-0.404620,0.150835,9.746795,-0.002929,-0.007590,-0.014914
1980-01-06T23:13:38.471129039Z,-0.390255,0.162806,9.727641,-0.002663,-0.006525,-0.014914
1980-01-06T23:13:38.491006279Z,-0.395043,0.153229,9.722853,-0.003063,-0.009055,-0.015979
1980-01-06T23:13:38.510870758Z,-0.386664,0.156820,9.674969,-0.001598,-0.008123,-0.015979
1980-01-06T23:13:38.530728727Z,-0.401029,0.159214,9.718064,-0.000133,-0.008655,-0.014914
1980-01-06T23:13:38.550633049Z,-0.397437,0.156820,9.756371,-0.000666,-0.007057,-0.015979
1980-01-06T23:13:38.570483414Z,-0.387861,0.156820,9.761160,-0.004128,-0.008788,-0.014914
1980-01-06T23:13:38.590325445Z,-0.405817,0.150835,9.706393,-0.005193,-0.007989,-0.015446
1980-01-06T23:13:38.610195914Z,-0.393846,0.148441,9.701605,-0.003063,-0.008655,-0.015446
1980-01-06T23:13:38.630074091Z,-0.390255,0.171185,9.696816,-0.001598,-0.007590,-0.015446
1980-01-06T23:13:38.669835706Z,-0.387861,0.150835,9.744700,-0.002796,-0.007191,-0.016512
1980-01-06T23:13:38.689694143Z,-0.399832,0.132878,9.739912,-0.004128,-0.008123,-0.016512
1980-01-06T23:13:38.709581226Z,-0.392649,0.146046,9.706393,-0.005193,-0.008123,-0.016512
1980-01-06T23:13:38.729433622Z,-0.393846,0.154426,9.701605,-0.002663,-0.008788,-0.015446
1980-01-06T23:13:38.749324924Z,-0.395043,0.161609,9.739912,-0.002264,-0.007457,-0.016512
1980-01-06T23:13:38.769186904Z,-0.392649,0.177171,9.735124,-0.001864,-0.008522,-0.016512
1980-01-06T23:13:38.789030758Z,-0.396240,0.144849,9.720758,-0.002131,-0.007057,-0.015446
1980-01-06T23:13:38.808903570Z,-0.396240,0.140061,9.701605,-0.003728,-0.007723,-0.015446
1980-01-06T23:13:38.828776799Z,-0.396240,0.154426,9.715970,-0.002397,-0.007457,-0.016512
1980-01-06T23:13:38.848623674Z,-0.397437,0.158017,9.711182,-0.001065,-0.008123,-0.015446
1980-01-06T23:13:38.868514091Z,-0.395043,0.146046,9.735124,-0.003063,-0.008123,-0.016512
1980-01-06T23:13:38.888396070Z,-0.387861,0.166397,9.725547,-0.002397,-0.007856,-0.015446
1980-01-06T23:13:38.908267216Z,-0.402226,0.148441,9.730335,-0.003728,-0.007457,-0.016512
1980-01-06T23:13:38.928132528Z,-0.393846,0.156820,9.711182,-0.003595,-0.007723,-0.015446
1980-01-06T23:13:38.967861643Z,-0.391452,0.140061,9.718064,-0.000799,-0.010653,-0.015979
1980-01-06T23:13:38.987704560Z,-0.405817,0.154426,9.737218,-0.002929,-0.008256,-0.015979
1980-01-06T23:13:39.007640445Z,-0.395043,0.154426,9.727641,-0.002929,-0.009188,-0.015979
1980-01-06T23:13:39.027430966Z,-0.410606,0.165200,9.703699,-0.003862,-0.008389,-0.015979
1980-01-06T23:13:39.047394091Z,-0.387861,0.166397,9.722853,-0.001997,-0.008788,-0.014914
1980-01-06T23:13:39.067209247Z,-0.398635,0.159214,9.743802,-0.001997,-0.008788,-0.014914
1980-01-06T23:13:39.087039299Z,-0.401029,0.160412,9.729437,-0.001997,-0.008123,-0.015979
1980-01-06T23:13:39.106945810Z,-0.404620,0.152032,9.734225,-0.004661,-0.007057,-0.015979
1980-01-06T23:13:39.126826331Z,-0.393846,0.166397,9.715072,-0.002530,-0.008522,-0.015979
1980-01-06T23:13:39.146651539Z,-0.396240,0.148441,9.734225,-0.002929,-0.007989,-0.015979
1980-01-06T23:13:39.166537945Z,-0.386664,0.146046,9.719860,-0.002397,-0.007856,-0.014914
1980-01-06T23:13:39.186514299Z,-0.407014,0.162806,9.758167,-0.002796,-0.007856,-0.014914
