timestamp,accel_x,accel_y,accel_z,gyro_x,gyro_y,gyro_z
1980-01-06T05:54:06.562999915Z,-0.426168,-0.944513,9.618406,0.501739,0.015713,0.069242
1980-01-06T05:54:06.582781165Z,0.438139,0.217872,13.410822,1.343164,0.071639,0.172573
1980-01-06T05:54:06.602631947Z,-0.421380,-1.120486,14.315830,0.172173,-0.406664,0.085221
1980-01-06T05:54:06.622605228Z,0.788889,0.799663,13.378500,-0.350871,-0.924782,-0.126766
1980-01-06T05:54:06.642342624Z,0.664391,0.804452,12.416031,-0.258193,-0.917059,0.075634
1980-01-06T05:54:06.662252259Z,0.671574,0.324414,12.545318,-0.300671,-0.736497,0.125701
1980-01-06T05:54:06.682144655Z,0.883460,0.107739,12.065579,-0.381364,-0.529569,0.184823
1980-01-06T05:54:06.721812363Z,0.719458,-0.205901,11.477504,-0.380299,-0.227301,0.224771
1980-01-06T05:54:06.741742415Z,0.691924,-0.124498,11.051335,-0.420246,-0.147006,0.275903
1980-01-06T05:54:06.761570645Z,0.702698,0.041899,10.326491,-0.351670,-0.021705,0.333960
1980-01-06T05:54:06.781473197Z,0.629675,-0.319626,10.336068,-0.234358,0.062851,0.382962
1980-01-06T05:54:06.801337155Z,0.305261,-0.517148,10.565911,-0.204397,0.173505,0.419181
1980-01-06T05:54:06.821210644Z,0.191536,-0.366313,9.842862,-0.237953,0.174970,0.387223
1980-01-06T05:54:06.841088926Z,0.222661,-0.245406,9.545981,-0.131294,0.230763,0.390419
1980-01-06T05:54:06.860918717Z,-0.278924,-0.524330,9.216180,-0.313454,0.183891,0.328101
1980-01-06T05:54:06.880783457Z,0.075417,-0.605733,8.823531,-0.463390,0.099070,0.276969
1980-01-06T05:54:06.900731165Z,-0.126893,-0.571017,8.550592,-0.484562,0.110654,0.209857
1980-01-06T05:54:06.920617988Z,0.095768,-0.294487,7.784448,-0.434761,0.224637,0.201335
1980-01-06T05:54:06.940551322Z,0.248997,-0.160412,7.490260,-0.329300,0.178964,0.123038
1980-01-06T05:54:06.960406582Z,0.560243,-0.328006,7.317877,-0.238220,0.169910,0.140082
1980-01-06T05:54:06.980189967Z,0.423774,-0.466869,7.686584,-0.139683,0.143278,0.162453
1980-01-06T05:54:07.000075749Z,0.217872,-0.518345,7.739257,-0.115581,0.102132,0.161387
1980-01-06T05:54:07.039804030Z,0.094571,-0.610521,8.049006,-0.067245,0.039548,0.106526
1980-01-06T05:54:07.059784967Z,0.199916,-0.639252,8.250120,-0.065913,0.006258,0.103331
1980-01-06T05:54:07.079534707Z,0.098162,-0.627281,8.229171,-0.086553,-0.001332,0.097472
1980-01-06T05:54:07.099403353Z,0.052672,-0.548272,8.061577,-0.043010,-0.026632,0.061253
1980-01-06T05:54:07.119274238Z,0.108936,-0.670376,8.306383,0.001864,0.019974,0.076699
1980-01-06T05:54:07.139143769Z,0.084994,-0.781707,8.569746,0.026632,-0.001465,0.071373
1980-01-06T05:54:07.159130540Z,0.125696,-0.717063,8.574534,0.029162,-0.082158,0.057524
1980-01-06T05:54:07.178888717Z,0.014365,-0.597353,8.598476,0.061785,-0.117312,0.055394
1980-01-06T05:54:07.198767832Z,0.065841,-0.664391,8.761282,0.116646,-0.094143,0.061785
1980-01-06T05:54:07.218621790Z,-0.026336,-0.782904,9.174282,0.147672,-0.077631,0.049002
1980-01-06T05:54:07.238485280Z,0.050278,-0.658405,9.360131,0.145275,-0.048869,0.027164
1980-01-06T05:54:07.258427884Z,0.234632,-0.718261,9.566931,0.162985,-0.049135,0.024501
1980-01-06T05:54:07.278265019Z,0.116119,-0.518345,10.068815,0.172972,-0.081093,0.044208
1980-01-06T05:54:07.298133092Z,0.043096,-0.638055,9.886856,0.161254,-0.136354,0.016512
1980-01-06T05:54:07.337834759Z,0.033519,-0.766145,10.136751,0.129829,-0.030626,0.007457
1980-01-06T05:54:07.357855071Z,0.159214,-0.749385,10.189424,0.060187,0.003462,0.001065
1980-01-06T05:54:07.377637259Z,0.246603,-0.611719,9.742306,0.037684,-0.057791,-0.017577
1980-01-06T05:54:07.397509707Z,0.238223,-0.500388,9.627384,0.045007,-0.050733,-0.016512
1980-01-06T05:54:07.417349759Z,0.167594,-0.529119,9.790190,0.115981,-0.020240,-0.010120
1980-01-06T05:54:07.437214863Z,0.365116,-0.541090,9.809942,0.088816,-0.015313,0.001065
1980-01-06T05:54:07.457190280Z,0.141258,-0.480037,9.857826,0.066446,-0.058323,0.002131
1980-01-06T05:54:07.496813509Z,0.185551,-0.494403,9.632771,0.039681,-0.050999,-0.004261
1980-01-06T05:54:07.516698300Z,0.064643,-0.306458,9.316736,0.052198,-0.034355,-0.012783
1980-01-06T05:54:07.536569863Z,0.073023,-0.092177,9.101258,0.124370,-0.012783,-0.026632
1980-01-06T05:54:07.556558613Z,-0.058658,-0.263362,9.479543,0.181228,0.005992,-0.019175
1980-01-06T05:54:07.576403196Z,-0.318429,-0.123301,9.678560,0.179896,-0.044342,-0.043143
1980-01-06T05:54:07.596190071Z,-0.646434,0.201113,9.611523,0.186954,-0.100934,-0.054861
1980-01-06T05:54:07.616039915Z,-1.412579,0.365116,9.677064,0.229032,-0.178165,-0.085221
1980-01-06T05:54:07.635917363Z,-2.527080,0.526724,10.079289,0.250204,-0.315052,-0.217314
1980-01-06T05:54:07.655748509Z,-3.210624,0.432153,9.973945,0.266715,-0.454468,-0.336623
1980-01-06T05:54:07.675642207Z,-4.465186,-0.007183,10.610803,0.324772,-0.609464,-0.552872
1980-01-06T05:54:07.695532675Z,-5.158308,-0.311246,11.381736,0.257394,-0.640490,-0.873516
1980-01-06T05:54:07.715390696Z,-4.795586,0.125696,11.979089,0.203199,-0.443682,-1.202682
1980-01-06T05:54:07.735230592Z,-3.292027,0.501585,13.214497,0.182426,-0.318247,-1.490304
1980-01-06T05:54:07.755118352Z,-1.124078,0.537498,14.478636,0.086020,-0.318381,-1.666072
1980-01-06T05:54:07.775059602Z,1.646014,1.103727,16.039656,-0.099868,-0.228898,-1.651158
1980-01-06T05:54:07.814787519Z,7.163452,0.921768,18.166903,-0.871519,-0.187753,-1.311339
1980-01-06T05:54:07.834622207Z,8.895657,0.809240,17.544411,-1.398691,-0.049268,-1.048219
1980-01-06T05:54:07.854601061Z,9.989806,0.130484,16.174927,-1.797899,0.090947,-0.744619
1980-01-06T05:54:07.874435071Z,10.723629,-0.441730,14.532505,-2.120141,0.166181,-0.411192
1980-01-06T05:54:07.894229029Z,10.589554,-1.130063,12.751219,-2.324006,0.217713,0.019175
1980-01-06T05:54:07.914094134Z,9.959879,-1.628057,10.706571,-2.431198,0.138085,0.347276
1980-01-06T05:54:07.973776425Z,8.146272,-0.780510,4.546888,-2.228265,0.084422,1.359809
1980-01-06T05:54:07.993619759Z,7.089231,-1.140837,2.535759,-2.094175,0.024501,1.619733
1980-01-06T05:54:08.013465540Z,5.905299,-0.757765,1.353622,-1.857686,0.144343,1.944106
1980-01-06T05:54:08.033338821Z,4.541800,-0.652420,0.036811,-1.590305,0.149270,2.162485
1980-01-06T05:54:08.053226113Z,2.865860,-0.474052,-1.131560,-1.233442,0.125302,2.293512
1980-01-06T05:54:08.073108300Z,1.122881,-0.615310,-2.089240,-0.802543,0.123970,2.348906
1980-01-06T05:54:08.112813144Z,-1.000776,0.041899,-2.083255,0.180828,-0.213852,2.469281
1980-01-06T05:54:08.132713092Z,-2.571373,0.611719,-1.183035,0.605469,-0.711197,2.402169
1980-01-06T05:54:08.152569290Z,-4.523844,0.831985,-0.665887,1.004677,-0.781504,2.434127
1980-01-06T05:54:08.172462206Z,-5.928043,1.148020,0.724246,1.369396,-0.725178,2.213085
1980-01-06T05:54:08.192292259Z,-6.532579,0.910994,2.634819,1.629587,-0.698014,1.984053
1980-01-06T05:54:08.212162363Z,-6.999449,0.656011,4.433762,1.606950,-0.711330,1.696965
1980-01-06T05:54:08.232047936Z,-7.309498,1.833959,5.166388,1.635978,-0.803475,1.365668
1980-01-06T05:54:08.271882311Z,-7.599196,1.673547,8.913912,1.974333,-0.998685,0.701476
1980-01-06T05:54:08.291685592Z,-8.564059,1.768118,10.752659,1.933853,-1.180978,0.300937
1980-01-06T05:54:08.311543352Z,-8.655039,1.685518,12.141894,1.968474,-1.137835,-0.068177
1980-01-06T05:54:08.331372883Z,-9.068039,1.164779,13.645453,1.782186,-1.051016,-0.584830
1980-01-06T05:54:08.351358561Z,-8.175002,1.764527,13.583204,1.653955,-1.000282,-1.053546
1980-01-06T05:54:08.371174602Z,-7.498640,1.559822,14.962264,1.407080,-0.808002,-1.511609
1980-01-06T05:54:08.391077779Z,-4.104859,2.419341,18.093880,0.898816,-0.439554,-1.710813
1980-01-06T05:54:08.410879133Z,-4.216189,1.419762,17.510893,1.039963,-0.433429,-1.986717
1980-01-06T05:54:08.430762988Z,-1.629254,1.267730,17.640179,0.720118,-0.315851,-2.144376
1980-01-06T05:54:08.450657206Z,-0.848745,1.522712,19.613001,0.338621,-0.175635,-2.188051
1980-01-06T05:54:08.470494967Z,2.393005,1.969231,18.654423,0.198538,-0.020107,-2.335590
1980-01-06T05:54:08.490352988Z,4.691438,2.363077,18.405426,-0.132492,0.283360,-2.120407
1980-01-06T05:54:08.510288456Z,6.921637,1.911770,18.090288,-0.359660,0.226235,-1.940910
1980-01-06T05:54:08.530141842Z,8.147469,1.640028,16.783054,-0.642620,0.171507,-1.584047
1980-01-06T05:54:08.550088300Z,8.122330,1.059434,14.832378,-0.866059,0.160322,-1.214933
1980-01-06T05:54:08.569897310Z,7.456741,0.426168,12.830826,-0.944356,0.138617,-0.858070
1980-01-06T05:54:08.589725592Z,6.314707,-0.075417,10.331280,-0.914262,0.173238,-0.559796
1980-01-06T05:54:08.609578665Z,5.000290,-0.730232,8.574534,-0.763394,0.302934,-0.296143
1980-01-06T05:54:08.629489706Z,3.494337,-0.900220,7.037457,-0.555135,0.383362,-0.147006
1980-01-06T05:54:08.649309394Z,2.393005,-1.534683,6.596923,-0.341017,0.416918,-0.041545
1980-01-06T05:54:08.669181165Z,1.928530,-1.533486,6.730999,-0.243945,0.285757,0.049002
1980-01-06T05:54:08.689044550Z,1.321599,-1.440112,6.510732,-0.274039,0.075900,0.088417
1980-01-06T05:54:08.708929238Z,0.577003,-1.188721,5.989994,-0.220909,-0.068310,0.071373
1980-01-06T05:54:08.728808873Z,0.174777,-1.036689,6.044162,-0.117445,0.001997,0.062318
1980-01-06T05:54:08.748669602Z,0.117316,-1.019930,6.334758,-0.044608,0.071106,0.036219
1980-01-06T05:54:08.768587258Z,0.172383,-0.745794,6.724115,0.107192,-0.023968,0.007989
1980-01-06T05:54:08.788425540Z,0.171185,-0.957681,7.581240,0.200270,-0.158325,-0.021838
1980-01-06T05:54:08.808288821Z,0.131681,-1.094150,8.005911,0.196408,-0.219711,0.006392
1980-01-06T05:54:08.828173612Z,0.011971,-0.909797,8.187871,0.203598,-0.258859,-0.019175
1980-01-06T05:54:08.848005540Z,0.126893,-0.719458,8.291420,0.271909,-0.239418,-0.055926
1980-01-06T05:54:08.867900852Z,0.372298,-0.793678,8.358458,0.443150,-0.185223,-0.038882
1980-01-06T05:54:08.887731633Z,0.503979,-0.808043,9.598654,0.413722,-0.185090,-0.035686
1980-01-06T05:54:08.907711425Z,0.231040,-0.599748,10.201993,0.435560,-0.189617,-0.018642
1980-01-06T05:54:08.927564498Z,0.302867,-0.652420,10.552145,0.408395,-0.203732,-0.031958
1980-01-06T05:54:08.947391529Z,0.545878,-0.492008,10.643125,0.317848,-0.127565,-0.024501
1980-01-06T05:54:08.967374394Z,0.586579,-0.104148,10.576087,0.211854,-0.105727,-0.045806
1980-01-06T05:54:08.987146946Z,0.779313,-0.245406,10.034997,0.113850,-0.102265,-0.025566
1980-01-06T05:54:09.007057727Z,0.823605,-0.146046,9.514258,0.051532,-0.071639,-0.021305
1980-01-06T05:54:09.026856269Z,0.745794,-0.079009,8.991425,0.036752,0.058456,0.023968
1980-01-06T05:54:09.046730279Z,0.439336,0.028730,8.933964,-0.003063,0.118910,0.061253
1980-01-06T05:54:09.066594602Z,-0.219069,-0.287304,8.593987,-0.015846,0.096406,0.037817
1980-01-06T05:54:09.086498144Z,-0.374693,-0.373495,7.990648,-0.011452,0.235024,0.015446
1980-01-06T05:54:09.106348404Z,-0.171185,-0.339977,7.416938,0.012517,0.300671,-0.073503
1980-01-06T05:54:09.126210071Z,0.323217,-0.166397,7.163152,0.100534,0.346211,-0.042611
1980-01-06T05:54:09.146083873Z,0.405817,-0.041899,6.976405,0.285757,0.283094,-0.021305
1980-01-06T05:54:09.165935487Z,0.501585,0.372298,7.618051,0.530501,0.103064,-0.004261
1980-01-06T05:54:09.185827675Z,0.311246,-0.075417,8.834305,0.731969,-0.085354,0.012783
1980-01-06T05:54:09.205703769Z,0.281319,-0.152032,9.963171,0.702009,-0.227034,0.021305
1980-01-06T05:54:09.225664706Z,0.276530,-0.171185,10.643125,0.571647,-0.272974,0.026632
1980-01-06T05:54:09.245544081Z,0.180762,-0.065841,11.098022,0.418782,-0.123171,0.084156
1980-01-06T05:54:09.265465487Z,-0.239420,-0.016759,11.500249,0.222640,0.090281,0.077764
1980-01-06T05:54:09.285236581Z,-0.304064,0.483629,10.714951,0.050866,0.235290,-0.008522
1980-01-06T05:54:09.305043456Z,0.339977,0.999579,10.250475,0.200403,0.227434,-0.074568
1980-01-06T05:54:09.344830279Z,-1.370680,-4.990714,-3.882198,-0.621848,0.270976,-0.117712
1980-01-06T05:54:09.364818248Z,2.488773,4.643554,9.276335,-1.428385,0.015313,-0.111320
1980-01-06T05:54:09.384598404Z,-0.033519,-1.297657,10.186131,-0.627973,-0.014248,-0.017577
1980-01-06T05:54:09.404540018Z,-0.386664,-1.027112,7.953239,-0.384960,-0.005459,-0.027697
1980-01-06T05:54:09.424294185Z,-0.304064,-0.700304,9.193436,0.073903,-0.009188,-0.011718
