timestamp,accel_x,accel_y,accel_z,gyro_x,gyro_y,gyro_z
1980-01-06T23:15:09.348151036Z,-0.365116,0.075417,9.924564,0.000000,0.000000,-0.000266
1980-01-06T23:15:09.368170411Z,-0.393846,0.033519,9.914988,-0.023569,0.233426,0.406664
1980-01-06T23:15:09.388031192Z,-0.387861,-0.174777,9.921272,0.026498,0.058323,-0.023968
1980-01-06T23:15:09.427793848Z,-0.333991,-0.264559,9.988310,-0.058989,0.010386,-0.067644
1980-01-06T23:15:09.447488952Z,-0.368707,-0.296881,9.796774,-0.044741,0.015313,-0.081493
1980-01-06T23:15:09.467349525Z,-0.385466,-0.262165,9.782409,0.034222,0.012783,-0.123038
1980-01-06T23:15:09.487358484Z,-0.355539,-0.192733,9.737218,0.047671,0.009188,-0.135288
1980-01-06T23:15:09.507083431Z,-0.264559,-0.136469,9.674969,0.027564,0.031825,-0.156594
1980-01-06T23:15:09.547136817Z,-0.282516,0.053870,9.775525,0.010919,0.086020,-0.177899
1980-01-06T23:15:09.566856088Z,-0.317232,-0.002394,10.007463,-0.016512,0.115847,-0.163518
1980-01-06T23:15:09.586708900Z,-0.308852,-0.009577,10.261250,-0.044741,0.081759,-0.177366
1980-01-06T23:15:09.606471817Z,-0.302867,0.021548,10.050559,-0.045141,0.011052,-0.174171
1980-01-06T23:15:09.626460254Z,-0.401029,0.174777,10.012252,0.025699,-0.008788,-0.185888
1980-01-06T23:15:09.646389369Z,-0.496797,0.126893,9.935637,0.018908,0.021971,-0.178432
1980-01-06T23:15:09.666204161Z,-0.569820,0.205901,10.048165,0.044208,0.016911,-0.212520
1980-01-06T23:15:09.686036973Z,-0.457293,0.322020,10.071508,0.010786,0.002530,-0.196541
1980-01-06T23:15:09.705935567Z,-0.381875,0.306458,10.105027,-0.017311,-0.026632,-0.162453
1980-01-06T23:15:09.725800671Z,-0.502782,0.231040,10.095450,-0.032224,-0.038483,-0.142213
1980-01-06T23:15:09.745681817Z,-0.409408,0.207098,10.047566,-0.024368,-0.064448,-0.153931
1980-01-06T23:15:09.765542286Z,-0.387861,0.192733,9.990705,-0.024102,-0.058323,-0.140082
1980-01-06T23:15:09.785419473Z,-0.421380,0.128090,9.966763,-0.004261,-0.056326,-0.156061
1980-01-06T23:15:09.805280775Z,-0.318429,0.220267,10.009858,-0.001065,-0.060054,-0.156061
1980-01-06T23:15:09.825138171Z,-0.311246,0.227449,10.000281,-0.030893,-0.084822,-0.136886
1980-01-06T23:15:09.845024473Z,-0.348356,0.147243,9.818322,-0.012650,-0.102532,-0.142213
1980-01-06T23:15:09.864860983Z,-0.360327,0.129287,9.698612,-0.002131,-0.076433,-0.152865
1980-01-06T23:15:09.884715358Z,-0.294487,0.113725,9.789592,-0.023169,-0.056193,-0.150735
1980-01-06T23:15:09.904608171Z,-0.301669,0.195127,9.784803,-0.064049,-0.046738,-0.164583
1980-01-06T23:15:09.924509890Z,-0.343568,0.189142,9.669882,-0.058323,-0.026898,-0.153931
1980-01-06T23:15:09.944340046Z,-0.287304,0.216675,9.746496,0.005326,-0.016512,-0.168844
1980-01-06T23:15:09.964199994Z,-0.289698,0.276530,9.679459,0.023702,-0.035953,-0.168844
1980-01-06T23:15:09.984078588Z,-0.381875,0.316035,9.636363,0.025966,-0.017177,-0.177366
1980-01-06T23:15:10.003952181Z,-0.265756,0.387861,9.780015,0.006525,0.023036,-0.169910
1980-01-06T23:15:10.023831660Z,-0.276530,0.456095,9.897330,0.004128,-0.009321,-0.150735
1980-01-06T23:15:10.043695983Z,-0.359130,0.452504,9.959579,-0.008256,-0.038749,-0.117712
1980-01-06T23:15:10.063541869Z,-0.469264,0.282516,9.887753,0.027164,-0.028895,-0.139017
1980-01-06T23:15:10.083413848Z,-0.241814,0.396240,10.088866,0.037551,-0.023169,-0.136886
1980-01-06T23:15:10.103303900Z,-0.235829,0.310049,10.242096,-0.042211,-0.025699,-0.103863
1980-01-06T23:15:10.123165515Z,-0.175974,0.287304,10.227731,-0.115847,-0.016512,-0.091080
1980-01-06T23:15:10.143034421Z,-0.258574,0.196325,10.316615,-0.102798,-0.005726,-0.083091
1980-01-06T23:15:10.162911035Z,-0.260968,0.229843,10.330980,-0.094542,-0.051665,-0.089482
1980-01-06T23:15:10.182774681Z,-0.317232,0.306458,10.263943,-0.051532,-0.073636,-0.098004
1980-01-06T23:15:10.202640358Z,-0.275333,0.378284,10.254366,-0.012517,-0.101466,-0.098004
1980-01-06T23:15:10.222504108Z,-0.262165,0.418985,10.216059,-0.035420,-0.144743,-0.073503
1980-01-06T23:15:10.242406973Z,-0.282516,0.494403,10.106823,-0.020240,-0.170575,-0.081493
1980-01-06T23:15:10.262234473Z,-0.209493,0.500388,10.011055,0.012783,-0.160588,-0.075101
1980-01-06T23:15:10.282104525Z,-0.110133,0.568623,10.231321,-0.014248,-0.165249,-0.042078
1980-01-06T23:15:10.321849264Z,-0.020351,0.430956,10.058939,-0.058856,-0.220376,-0.010120
1980-01-06T23:15:10.341730098Z,0.040701,0.505177,10.188226,-0.068976,-0.232227,0.001598
1980-01-06T23:15:10.361583067Z,-0.003591,0.408211,10.006267,-0.108124,-0.183492,0.025034
1980-01-06T23:15:10.381463275Z,0.087388,0.471658,10.073304,-0.056326,-0.206128,0.030360
1980-01-06T23:15:10.401327702Z,0.096965,0.451307,10.102035,-0.045407,-0.202933,0.041013
1980-01-06T23:15:10.421183067Z,0.106542,0.353145,10.164284,-0.003063,-0.223173,0.018642
1980-01-06T23:15:10.441078223Z,0.195127,0.433351,10.182240,-0.038616,-0.240883,0.047404
1980-01-06T23:15:10.460914421Z,0.174777,0.345962,10.128969,-0.021971,-0.218512,0.045274
1980-01-06T23:15:10.480756921Z,0.282516,0.518345,10.254366,-0.002397,-0.271110,0.068177
1980-01-06T23:15:10.500673952Z,0.229843,0.313640,10.048465,-0.031558,-0.290551,0.072438
1980-01-06T23:15:10.520533691Z,0.377087,0.481235,10.216059,-0.059655,-0.287089,0.085221
1980-01-06T23:15:10.540416452Z,0.237026,0.363919,10.115502,-0.091879,-0.268979,0.108657
1980-01-06T23:15:10.560283952Z,0.417788,0.384269,10.347441,-0.047138,-0.299605,0.105994
1980-01-06T23:15:10.580110254Z,0.463278,0.345962,10.270826,-0.034887,-0.321044,0.131560
1980-01-06T23:15:10.600018691Z,0.525527,0.306458,10.232519,-0.001997,-0.357263,0.133691
1980-01-06T23:15:10.619878431Z,0.531513,0.271742,10.179847,-0.031692,-0.403335,0.135821
1980-01-06T23:15:10.639751556Z,0.629675,0.196325,10.079289,-0.032624,-0.397476,0.150735
1980-01-06T23:15:10.659624681Z,0.656011,0.137667,10.060136,-0.013449,-0.388022,0.151800
1980-01-06T23:15:10.679491348Z,0.766145,-0.112527,9.983521,0.021572,-0.395879,0.145408
1980-01-06T23:15:10.699369889Z,0.963666,0.076614,10.112808,0.003329,-0.477904,0.157126
1980-01-06T23:15:10.719245671Z,0.778116,-0.080206,9.715371,-0.038616,-0.494282,0.154996
1980-01-06T23:15:10.739107441Z,1.013944,0.195127,9.595661,-0.045673,-0.476839,0.162453
1980-01-06T23:15:10.778827702Z,1.254562,0.014365,9.442432,0.001598,-0.420380,0.177366
1980-01-06T23:15:10.798707493Z,1.122881,-0.178368,9.662699,0.070441,-0.407463,0.123038
1980-01-06T23:15:10.818717389Z,1.280898,-0.237026,9.610026,0.027297,-0.402270,0.135821
1980-01-06T23:15:10.838465150Z,1.356315,-0.396240,9.404125,0.097205,-0.417716,0.079362
1980-01-06T23:15:10.858342025Z,1.467646,-0.349553,9.313146,0.180695,-0.397476,0.051665
1980-01-06T23:15:10.878176973Z,1.493982,-0.397437,9.456798,0.341417,-0.404001,-0.017577
1980-01-06T23:15:10.898050879Z,1.942895,0.114922,9.447221,0.212387,-0.479369,0.076166
1980-01-06T23:15:10.917911660Z,1.637634,-0.229843,8.910919,0.003595,-0.383229,0.100667
1980-01-06T23:15:10.937635879Z,1.715446,0.142455,8.939650,-0.071639,-0.359926,0.085754
1980-01-06T23:15:10.957670202Z,1.740585,0.466869,8.597279,-0.193079,-0.325438,0.153931
1980-01-06T23:15:10.977494108Z,1.657985,0.372298,8.639776,-0.092012,-0.264052,0.125168
1980-01-06T23:15:10.997387545Z,1.850718,0.413000,8.706814,-0.148737,-0.216248,0.157126
1980-01-06T23:15:11.017258900Z,1.857901,0.359130,8.735544,-0.162852,-0.169510,0.179497
1980-01-06T23:15:11.037115566Z,1.905785,0.269348,8.813954,-0.064715,-0.180296,0.173105
1980-01-06T23:15:11.076860306Z,2.032677,0.213084,8.684668,0.044342,-0.183225,0.152865
1980-01-06T23:15:11.096737233Z,2.128445,0.245406,8.976760,0.061652,-0.156993,0.180562
1980-01-06T23:15:11.116608014Z,2.244564,0.289698,8.938453,0.039681,-0.200802,0.183758
1980-01-06T23:15:11.136497389Z,2.231396,0.274136,8.722975,0.028363,-0.203732,0.206128
1980-01-06T23:15:11.156345254Z,2.212242,0.295684,8.713398,0.090547,-0.177500,0.203998
1980-01-06T23:15:11.176183691Z,2.209848,0.231040,8.815151,0.092145,-0.130095,0.210390
1980-01-06T23:15:11.196053170Z,2.274492,0.345962,8.944438,0.066313,-0.099336,0.217846
1980-01-06T23:15:11.215926868Z,2.308010,0.354342,8.896554,0.103331,-0.110122,0.231695
1980-01-06T23:15:11.235798535Z,2.396596,0.288501,9.025841,0.192813,-0.130362,0.247674
1980-01-06T23:15:11.255656660Z,2.333150,0.045490,9.021052,0.157393,-0.107458,0.267914
1980-01-06T23:15:11.275458327Z,2.366668,0.089783,9.030629,0.090414,-0.095741,0.261522
1980-01-06T23:15:11.295445150Z,2.345121,0.215478,8.901342,0.082025,-0.098404,0.268979
1980-01-06T23:15:11.315293170Z,2.438494,0.055067,8.807969,0.114649,-0.092012,0.294545
1980-01-06T23:15:11.335163066Z,2.505532,-0.217872,8.913314,0.127299,-0.029428,0.286023
1980-01-06T23:15:11.355037181Z,2.565387,-0.237026,9.023447,0.082158,-0.030360,0.271110
1980-01-06T23:15:11.374871608Z,2.427721,-0.125696,9.014170,0.059122,-0.012916,0.270577
1980-01-06T23:15:11.394743483Z,2.384625,-0.141258,8.980651,0.130362,-0.020506,0.259924
1980-01-06T23:15:11.414620983Z,2.309207,-0.154426,8.875306,0.154197,-0.051133,0.258859
1980-01-06T23:15:11.434504524Z,2.357092,-0.140061,8.942344,0.101600,0.013582,0.275903
1980-01-06T23:15:11.454380462Z,2.468422,-0.274136,8.976760,0.107858,0.014647,0.279632
1980-01-06T23:15:11.474208639Z,2.513912,-0.367510,8.919299,0.095208,0.013715,0.270044
1980-01-06T23:15:11.494084264Z,2.567781,-0.428562,8.871415,0.073636,0.007856,0.255131
1980-01-06T23:15:11.533833066Z,2.293645,-0.183156,8.488343,0.093477,0.088816,0.201867
1980-01-06T23:15:11.553703899Z,2.410961,-0.021548,8.569746,0.137153,0.106793,0.196541
1980-01-06T23:15:11.573565879Z,2.177526,-0.100556,8.478766,0.152066,0.076166,0.206128
1980-01-06T23:15:11.593441399Z,2.199074,-0.164003,8.349479,0.132892,0.134090,0.181627
1980-01-06T23:15:11.613302910Z,2.260126,-0.016759,8.569746,0.059122,0.219577,0.183758
1980-01-06T23:15:11.633179941Z,2.196680,-0.193930,8.809166,0.007989,0.265916,0.225303
1980-01-06T23:15:11.653040879Z,2.138022,-0.465672,8.981548,-0.013049,0.251802,0.214651
1980-01-06T23:15:11.672904160Z,2.340332,-0.453701,8.976760,-0.028096,0.234225,0.182693
1980-01-06T23:15:11.692777129Z,2.375048,-0.391452,9.010279,-0.073503,0.223838,0.208259
1980-01-06T23:15:11.712648431Z,1.854309,-0.916979,8.794801,-0.151534,0.285757,0.213585
1980-01-06T23:15:11.732539108Z,2.207454,-0.453701,9.034221,-0.037417,0.301869,0.092145
1980-01-06T23:15:11.752385410Z,2.288857,-0.192733,8.861838,0.114915,0.349540,0.099602
1980-01-06T23:15:11.772253118Z,2.276886,-0.624887,9.264064,0.196807,0.310657,0.103863
1980-01-06T23:15:11.792118951Z,1.734599,-0.986411,9.460389,0.105594,0.283493,0.082558
1980-01-06T23:15:11.812005774Z,2.036268,-0.356736,9.811139,0.170176,0.242747,0.074036
1980-01-06T23:15:11.831836920Z,1.605312,-0.764947,9.356241,0.060986,0.235823,0.120907
1980-01-06T23:15:11.851740878Z,1.959654,-0.499191,9.442432,0.352070,0.222374,-0.026099
1980-01-06T23:15:11.871593118Z,1.707066,-0.514753,9.198224,0.313187,0.211854,-0.005859
1980-01-06T23:15:11.891490306Z,1.550246,-0.386664,9.054571,0.338487,0.215849,-0.093211
1980-01-06T23:15:11.911346399Z,1.599327,-0.039504,8.982745,0.252201,0.281895,-0.108124
1980-01-06T23:15:11.931368639Z,1.474828,-0.005986,9.179070,0.205995,0.323041,-0.098537
1980-01-06T23:15:11.951089628Z,1.401805,-0.104148,9.116820,-0.017710,0.374706,-0.044208
1980-01-06T23:15:11.990816139Z,1.175553,0.051475,9.542989,-0.154996,0.427437,0.005859
1980-01-06T23:15:12.010689889Z,0.799663,-0.380678,9.463382,-0.063516,0.432364,-0.072971
1980-01-06T23:15:12.030536764Z,1.059434,-0.058658,9.554959,-0.000266,0.417583,-0.082558
1980-01-06T23:15:12.050430045Z,0.752976,-0.152032,9.559150,0.121307,0.382962,-0.092145
1980-01-06T23:15:12.070267962Z,0.746991,-0.081403,9.363423,0.232627,0.279099,-0.137952
1980-01-06T23:15:12.090180149Z,0.834379,0.053870,9.210195,0.239152,0.286556,-0.167779
1980-01-06T23:15:12.110034628Z,0.706290,-0.117316,9.223961,0.319046,0.431565,-0.239152
1980-01-06T23:15:12.129914003Z,0.956484,0.361524,9.951798,0.223972,0.429434,-0.192280
1980-01-06T23:15:12.149776608Z,0.356736,0.065841,9.923068,0.102398,0.477105,-0.173105
1980-01-06T23:15:12.169670410Z,0.515950,0.502782,10.339660,0.149403,0.455533,-0.212520
1980-01-06T23:15:12.189506555Z,0.299275,0.397437,10.090662,0.100801,0.434761,-0.165648
1980-01-06T23:15:12.209381035Z,0.213084,0.608127,10.267834,0.232361,0.372576,-0.225303
1980-01-06T23:15:12.229251503Z,0.214281,0.882263,10.119392,0.216914,0.350339,-0.197606
1980-01-06T23:15:12.249124003Z,0.214281,0.872687,10.272622,0.239152,0.333294,-0.186954
1980-01-06T23:15:12.288884003Z,-0.008380,0.791284,9.947010,0.152865,0.240616,-0.166714
1980-01-06T23:15:12.308718899Z,0.056264,0.896629,9.851242,0.197473,0.239418,-0.149670
1980-01-06T23:15:12.328447545Z,0.058658,0.776918,9.913491,0.156860,0.245543,-0.150735
1980-01-06T23:15:12.348459316Z,-0.120907,0.743400,9.750686,0.109722,0.248206,-0.157126
1980-01-06T23:15:12.368333691Z,-0.155623,0.774524,9.774628,0.214784,0.253799,-0.195476
1980-01-06T23:15:12.388199420Z,-0.256180,0.676362,9.544785,0.183092,0.243945,-0.169910
1980-01-06T23:15:12.408057389Z,-0.167594,0.808043,9.544785,0.269379,0.237021,-0.222107
1980-01-06T23:15:12.447770149Z,-0.464475,0.770933,9.583989,0.172306,0.307062,-0.190682
1980-01-06T23:15:12.467630878Z,-0.270545,1.113304,9.804255,0.166181,0.311856,-0.202400
1980-01-06T23:15:12.487546399Z,-0.373495,1.103727,9.818622,0.077232,0.323574,-0.183225
1980-01-06T23:15:12.507427076Z,-0.318429,1.120486,9.928755,-0.017577,0.324639,-0.158724
1980-01-06T23:15:12.527256034Z,-0.427365,0.963666,10.263943,0.050334,0.330764,-0.218379
1980-01-06T23:15:12.547301920Z,-0.483629,1.085770,10.532093,0.036618,0.249538,-0.173638
1980-01-06T23:15:12.586887337Z,-0.743400,1.333570,10.307038,0.110787,0.161654,-0.208792
1980-01-06T23:15:12.606723430Z,-0.785298,1.356315,10.325892,0.121174,0.144876,-0.201867
1980-01-06T23:15:12.626622337Z,-0.725443,1.332373,10.479121,0.045806,0.143544,-0.177366
1980-01-06T23:15:12.646489368Z,-0.792481,1.279701,10.263643,0.019707,0.094942,-0.182693
1980-01-06T23:15:12.666366764Z,-0.877475,1.319205,9.976339,0.093477,0.081226,-0.168844
1980-01-06T23:15:12.686350722Z,-0.701501,1.079785,10.033800,0.087884,0.115182,-0.179497
1980-01-06T23:15:12.706076868Z,-0.636858,1.072602,9.961974,0.057657,0.086153,-0.216781
1980-01-06T23:15:12.745827545Z,-0.796072,0.932542,9.416096,0.039548,0.131027,-0.214651
1980-01-06T23:15:12.765687232Z,-0.653617,1.249773,9.708189,0.088683,0.103996,-0.257261
1980-01-06T23:15:12.785557857Z,-0.712275,1.143231,9.684247,-0.019308,0.110388,-0.198672
1980-01-06T23:15:12.805413014Z,-0.912191,0.950498,9.631575,-0.023968,0.110122,-0.247674
1980-01-06T23:15:12.825303899Z,-0.976834,1.089362,9.497499,0.010519,0.097205,-0.261522
1980-01-06T23:15:12.845164576Z,-0.932542,0.859518,9.449615,0.026498,0.149403,-0.284958
1980-01-06T23:15:12.865017441Z,-0.937330,0.896629,9.641151,0.026898,0.188552,-0.307329
1980-01-06T23:15:12.884908118Z,-0.928950,0.936133,9.784803,0.026632,0.165249,-0.331830
1980-01-06T23:15:12.904761451Z,-1.124078,1.163582,9.808745,-0.001731,0.124769,-0.320112
1980-01-06T23:15:12.924634003Z,-1.314417,1.241394,9.957186,0.035154,0.138218,-0.340352
1980-01-06T23:15:12.944510305Z,-1.284489,1.389834,10.119991,-0.001997,0.108657,-0.303067
1980-01-06T23:15:12.964366607Z,-1.492785,0.829591,9.938032,0.013715,0.093477,-0.341417
1980-01-06T23:15:12.984252649Z,-1.187524,0.651223,10.234913,0.154330,0.066046,-0.502272
1980-01-06T23:15:13.004113222Z,-1.035492,1.019930,10.335469,-0.239018,-0.011718,-0.308394
1980-01-06T23:15:13.043839836Z,-1.705869,0.730232,10.033800,0.121041,0.080161,-0.499076
1980-01-06T23:15:13.063708274Z,-0.787692,1.687912,10.938808,-0.056193,-0.034088,-0.275371
1980-01-06T23:15:13.083734680Z,-1.479617,0.915782,10.029012,-0.547279,-0.043676,-0.170975
1980-01-06T23:15:13.103449993Z,-2.138022,-0.867898,8.654740,-0.712262,0.173105,-0.338221
1980-01-06T23:15:13.123344628Z,-0.969652,1.880645,10.503063,-0.317049,0.156461,-0.356331
1980-01-06T23:15:13.143193274Z,-1.667562,0.465672,9.569324,-0.124103,0.104130,-0.216781
1980-01-06T23:15:13.163074003Z,-1.950077,0.409408,9.957186,0.158857,0.125435,-0.316916
1980-01-06T23:15:13.182925774Z,-1.302446,1.339556,10.608409,0.081093,-0.081892,-0.261522
1980-01-06T23:15:13.202801711Z,-1.695095,1.297657,10.373776,0.019974,-0.091613,-0.229564
1980-01-06T23:15:13.222681347Z,-1.426944,1.490391,10.412084,0.188418,-0.100801,-0.247674
1980-01-06T23:15:13.242541347Z,-1.450886,1.584962,10.746674,0.152200,-0.119842,-0.186954
1980-01-06T23:15:13.262400201Z,-1.310825,1.608904,10.631752,-0.086819,-0.130095,-0.120907
1980-01-06T23:15:13.282289576Z,-1.289278,1.376666,10.387544,-0.402137,-0.089482,-0.071905
1980-01-06T23:15:13.302143274Z,-1.151611,1.327585,10.349236,-0.370712,-0.094675,-0.103863
1980-01-06T23:15:13.322025774Z,-1.059434,1.271321,10.670059,-0.187087,-0.182826,-0.079362
1980-01-06T23:15:13.341891242Z,-1.103727,0.733823,10.703578,-0.172839,-0.226502,-0.067644
1980-01-06T23:15:13.361756451Z,-1.078588,0.707487,10.828076,-0.136354,-0.247940,-0.095341
1980-01-06T23:15:13.381625878Z,-0.949301,0.968455,10.952575,-0.104396,-0.292947,-0.064448
1980-01-06T23:15:13.401616295Z,-1.121683,0.889446,10.800244,-0.146207,-0.331164,-0.028762
1980-01-06T23:15:13.421374367Z,-1.136049,1.175553,10.503363,-0.254997,-0.356863,-0.018109
1980-01-06T23:15:13.441227336Z,-1.195904,1.280898,10.143933,-0.298540,-0.341550,0.002663
1980-01-06T23:15:13.461084888Z,-1.070208,1.292869,10.100838,-0.257128,-0.327302,0.018642
1980-01-06T23:15:13.481050461Z,-0.957681,1.146823,10.052954,-0.185489,-0.335558,0.021838
1980-01-06T23:15:13.500844576Z,-0.784101,1.079785,10.153510,-0.137286,-0.361391,0.048469
1980-01-06T23:15:13.520718117Z,-0.690727,0.867898,10.234015,-0.154330,-0.403335,0.068177
1980-01-06T23:15:13.540574628Z,-0.642843,0.810437,10.238804,-0.203598,-0.411325,0.078829
1980-01-06T23:15:13.560443378Z,-0.562637,0.808043,10.114305,-0.250204,-0.396944,0.103331
1980-01-06T23:15:13.580311711Z,-0.533907,0.790087,10.013748,-0.227567,-0.421578,0.133158
1980-01-06T23:15:13.600174888Z,-0.573411,0.596156,9.938332,-0.192014,-0.423709,0.135288
1980-01-06T23:15:13.620076919Z,-0.293290,0.624887,9.890448,-0.194011,-0.399607,0.137419
1980-01-06T23:15:13.639918899Z,-0.335188,0.524330,10.077195,-0.188951,-0.375239,0.136354
1980-01-06T23:15:13.659782909Z,-0.245406,0.511162,10.134656,-0.183625,-0.403469,0.150202
1980-01-06T23:15:13.679664784Z,-0.281319,0.316035,10.062830,-0.135422,-0.428369,0.156594
1980-01-06T23:15:13.699513534Z,-0.143652,0.225055,10.000581,-0.093876,-0.465121,0.153398
1980-01-06T23:15:13.719407284Z,-0.137667,0.053870,9.967062,-0.108124,-0.471113,0.147006
1980-01-06T23:15:13.739294263Z,-0.039504,0.089783,9.904813,-0.071240,-0.484828,0.136354
1980-01-06T23:15:13.759132180Z,0.032322,0.050278,9.895236,-0.038749,-0.506133,0.164051
1980-01-06T23:15:13.779011763Z,0.172383,-0.057461,9.785102,-0.032890,-0.523977,0.160855
1980-01-06T23:15:13.798873430Z,0.239420,-0.034716,9.603143,-0.042211,-0.517851,0.165116
1980-01-06T23:15:13.818755201Z,0.330400,-0.098162,9.583989,-0.061652,-0.465786,0.158724
1980-01-06T23:15:13.838599003Z,0.434548,-0.033519,9.560047,-0.074968,-0.457664,0.159790
1980-01-06T23:15:13.858484107Z,0.543484,0.007183,9.526528,-0.059522,-0.462724,0.158724
1980-01-06T23:15:13.878470409Z,0.585382,-0.039504,9.349358,-0.066046,-0.471779,0.175768
1980-01-06T23:15:13.898212284Z,0.732626,-0.046687,9.363723,-0.031558,-0.462990,0.167246
1980-01-06T23:15:13.918068117Z,0.732626,-0.215478,9.267955,-0.022637,-0.430366,0.180030
1980-01-06T23:15:13.937923638Z,0.900220,-0.233435,9.306262,-0.011851,-0.414121,0.155528
1980-01-06T23:15:13.957807492Z,0.910994,-0.166397,9.301474,-0.039947,-0.383761,0.149137
1980-01-06T23:15:13.977658378Z,0.985214,-0.162806,9.258378,-0.004794,-0.378701,0.150202
1980-01-06T23:15:13.997545461Z,1.161188,-0.169988,9.296685,0.043809,-0.389620,0.150202
1980-01-06T23:15:14.017425669Z,1.222240,-0.175974,9.167398,0.041013,-0.425040,0.157659
1980-01-06T23:15:14.037290357Z,1.262941,-0.053870,8.951621,0.117046,-0.421978,0.139017
1980-01-06T23:15:14.057128482Z,1.347936,0.110133,8.850166,0.150868,-0.405066,0.158724
1980-01-06T23:15:14.077001034Z,1.383849,0.069432,8.778340,0.184024,-0.362989,0.133158
1980-01-06T23:15:14.096879888Z,1.539472,0.235829,8.798691,0.168578,-0.302002,0.162985
1980-01-06T23:15:14.116752232Z,1.455675,0.251391,9.129091,0.145142,-0.345012,0.181095
1980-01-06T23:15:14.136622648Z,1.434127,0.089783,8.975863,0.168045,-0.323707,0.171507
1980-01-06T23:15:14.156481398Z,1.696292,0.169988,8.961497,0.192680,-0.321310,0.193878
1980-01-06T23:15:14.176360930Z,1.643619,-0.143652,9.057265,0.228898,-0.262854,0.186421
1980-01-06T23:15:14.196226555Z,1.857901,0.001197,9.215282,0.270444,-0.293746,0.171507
1980-01-06T23:15:14.216102753Z,1.793257,-0.076614,9.071630,0.215982,-0.268979,0.171507
1980-01-06T23:15:14.255819471Z,1.970428,-0.053870,9.109938,0.281096,-0.243280,0.200270
1980-01-06T23:15:14.275831346Z,2.080561,0.019154,9.172187,0.192946,-0.211055,0.224771
1980-01-06T23:15:14.295557440Z,2.048239,0.077812,9.076419,0.198006,-0.186954,0.175768
1980-01-06T23:15:14.315492857Z,2.169147,0.319626,8.947132,0.245810,-0.200403,0.192813
1980-01-06T23:15:14.335304523Z,2.079364,0.227449,8.908825,0.188152,-0.129563,0.235423
1980-01-06T23:15:14.355303690Z,2.078167,0.134075,8.990228,0.094542,-0.086020,0.217314
1980-01-06T23:15:14.375037805Z,2.238579,0.386664,8.932767,0.037417,-0.093743,0.221575
1980-01-06T23:15:14.394927180Z,2.264915,0.355539,8.951921,0.038349,-0.071905,0.258859
1980-01-06T23:15:14.414799315Z,2.132037,0.160412,8.865729,0.075367,-0.094942,0.257794
1980-01-06T23:15:14.434565096Z,2.195483,0.149638,8.923190,0.085354,-0.052597,0.227966
1980-01-06T23:15:14.454543742Z,2.258929,0.210690,9.081207,0.088284,-0.019042,0.205596
1980-01-06T23:15:14.474404263Z,2.165555,0.377087,9.181764,0.103331,-0.093077,0.239684
1980-01-06T23:15:14.494258377Z,2.090138,0.248997,8.956709,0.162586,-0.102665,0.245011
1980-01-06T23:15:14.514146398Z,2.205060,0.098162,8.927979,0.149936,-0.014647,0.246076
1980-01-06T23:15:14.573732648Z,2.415750,0.041899,8.980651,0.089216,0.019175,0.201335
1980-01-06T23:15:14.593597075Z,2.334347,0.089783,8.865729,0.139949,0.051399,0.192813
1980-01-06T23:15:14.613484471Z,2.263718,0.130484,9.071331,0.132226,0.084156,0.175236
1980-01-06T23:15:14.633358169Z,2.239776,0.284910,9.152734,0.078031,0.081359,0.170975
1980-01-06T23:15:14.653199159Z,2.275689,0.480037,8.903737,0.095208,0.027164,0.186954
1980-01-06T23:15:14.673174836Z,2.163161,0.421380,8.669106,0.134090,0.041945,0.213585
1980-01-06T23:15:14.692944627Z,2.153584,0.302867,8.784027,0.096406,0.115448,0.200802
1980-01-06T23:15:14.712835096Z,2.142811,0.372298,8.908525,-0.015979,0.156860,0.205063
1980-01-06T23:15:14.732694627Z,2.260126,0.363919,8.965986,-0.069375,0.149137,0.224238
1980-01-06T23:15:14.752557336Z,2.116474,0.106542,8.985140,-0.020506,0.141680,0.224238
1980-01-06T23:15:14.772627492Z,2.012326,0.040701,8.975563,0.027697,0.131427,0.208259
1980-01-06T23:15:14.792291815Z,1.983596,-0.007183,8.860641,0.123571,0.167113,0.180562
1980-01-06T23:15:14.812167909Z,2.023100,-0.005986,8.975563,0.216115,0.128764,0.149670
1980-01-06T23:15:14.832036659Z,2.068590,0.173580,8.875007,0.160455,0.135022,0.139017
1980-01-06T23:15:14.851906606Z,2.068590,0.319626,8.812757,0.119576,0.190549,0.158192
1980-01-06T23:15:14.871770096Z,1.932121,0.057461,8.903737,0.108524,0.241282,0.179497
1980-01-06T23:15:14.891630617Z,1.889025,-0.201113,9.181464,0.091080,0.245943,0.152865
1980-01-06T23:15:14.911528950Z,1.766921,-0.665588,8.831911,0.101866,0.256196,0.078297
1980-01-06T23:15:14.931370356Z,2.237381,0.374693,9.286809,0.245543,0.226901,0.051665
1980-01-06T23:15:14.951249002Z,1.738190,-0.023942,9.229348,0.121174,0.245543,0.119842
1980-01-06T23:15:14.971117804Z,1.528698,-0.099359,9.205406,0.193079,0.266982,0.041013
1980-01-06T23:15:15.010863013Z,1.711854,0.135272,9.377789,0.060187,0.268580,0.052731
1980-01-06T23:15:15.030728690Z,1.546654,0.010774,9.444826,0.088017,0.266183,0.026099
1980-01-06T23:15:15.050617544Z,1.509544,0.158017,9.334693,0.119310,0.238353,0.010120
1980-01-06T23:15:15.070603742Z,1.532289,0.009577,9.440038,0.102132,0.305198,-0.001598
1980-01-06T23:15:15.090340304Z,1.465251,-0.031125,9.674670,0.041545,0.310924,-0.047404
1980-01-06T23:15:15.110208117Z,1.278504,0.302867,9.449615,0.058190,0.272574,-0.085754
1980-01-06T23:15:15.130075356Z,1.173159,0.453701,9.420286,0.180030,0.308394,-0.076166
1980-01-06T23:15:15.149900044Z,1.057040,0.519542,9.492710,0.271642,0.285091,-0.090015
1980-01-06T23:15:15.169814002Z,0.988805,0.537498,9.224560,0.256063,0.268979,-0.112385
1980-01-06T23:15:15.189651086Z,1.156399,0.936133,9.267655,0.264984,0.254997,-0.144343
1980-01-06T23:15:15.209523533Z,1.175553,0.833182,9.339481,0.200536,0.278034,-0.100667
1980-01-06T23:15:15.229425825Z,0.991199,0.541090,9.416096,0.087485,0.342349,-0.109190
1980-01-06T23:15:15.249280669Z,0.938527,0.573411,9.574113,0.057791,0.364586,-0.139017
1980-01-06T23:15:15.269117752Z,0.814029,0.531513,9.631575,0.046738,0.371910,-0.125168
1980-01-06T23:15:15.289000825Z,0.861913,0.350751,9.703401,0.060720,0.350738,-0.148604
1980-01-06T23:15:15.308877388Z,0.701501,0.621295,9.617208,-0.077631,0.323574,-0.108124
1980-01-06T23:15:15.328743221Z,0.360327,0.636858,9.311948,-0.199471,0.392683,-0.141147
1980-01-06T23:15:15.348624888Z,0.131681,0.464475,9.340678,-0.181095,0.468450,-0.197606
1980-01-06T23:15:15.368462179Z,0.310049,0.658405,9.508273,-0.056059,0.468316,-0.214651
1980-01-06T23:15:15.388343950Z,0.328006,0.512359,9.637560,-0.054861,0.473376,-0.190150
1980-01-06T23:15:15.408221919Z,-0.031125,0.422577,9.876980,-0.052997,0.496945,-0.211455
1980-01-06T23:15:15.428090356Z,-0.274136,0.746991,10.360609,0.003862,0.524909,-0.230630
1980-01-06T23:15:15.447927440Z,-0.081403,0.922965,10.901698,0.293880,0.515588,-0.259392
1980-01-06T23:15:15.467822544Z,0.065841,1.063026,11.121964,0.337955,0.247940,-0.195476
1980-01-06T23:15:15.487679575Z,-0.341174,0.550666,10.183437,0.168578,0.171108,-0.153931
1980-01-06T23:15:15.507555096Z,-0.305261,0.733823,9.929652,0.293613,0.204397,-0.270044
1980-01-06T23:15:15.527424419Z,-0.126893,1.195904,10.073304,0.195875,0.246742,-0.203998
1980-01-06T23:15:15.547307492Z,-0.458490,1.031901,9.775227,0.185888,0.248340,-0.216781
1980-01-06T23:15:15.567312596Z,-0.371101,1.386243,9.756073,0.248073,0.251003,-0.185888
1980-01-06T23:15:15.587022179Z,-0.241814,1.170765,9.770438,0.130761,0.281363,-0.170975
1980-01-06T23:15:15.606903637Z,-0.320823,1.284489,9.823111,0.085487,0.249671,-0.182693
1980-01-06T23:15:15.626758117Z,-0.500388,1.125275,9.890148,0.144077,0.280963,-0.194411
1980-01-06T23:15:15.646652856Z,-0.476446,1.052252,10.038589,0.102532,0.283626,-0.172040
1980-01-06T23:15:15.666502960Z,-0.409408,1.053449,9.952397,0.150602,0.206794,-0.215716
1980-01-06T23:15:15.686374627Z,-0.286107,1.242591,9.698612,0.139283,0.169643,-0.194411
1980-01-06T23:15:15.706265981Z,-0.579397,0.913388,9.602843,0.226502,0.216781,-0.257261
1980-01-06T23:15:15.726102908Z,-0.525527,1.150414,9.650728,0.237687,0.242214,-0.277501
1980-01-06T23:15:15.765840460Z,-0.615310,1.159991,9.803957,0.255663,0.218246,-0.308394
1980-01-06T23:15:15.785722387Z,-0.714669,1.561020,9.669882,0.323574,0.200136,-0.361657
1980-01-06T23:15:15.805615669Z,-0.966060,1.504756,9.701006,0.317315,0.252601,-0.344613
1980-01-06T23:15:15.825455096Z,-0.738611,1.452083,9.940426,0.333161,0.269911,-0.404268
1980-01-06T23:15:15.845320044Z,-0.909797,1.622072,9.820716,0.344613,0.166181,-0.426638
1980-01-06T23:15:15.865196085Z,-1.174356,1.836353,9.863811,0.332096,0.165382,-0.404268
1980-01-06T23:15:15.885073169Z,-1.090559,1.668759,10.151116,0.268846,0.193079,-0.400006
1980-01-06T23:15:15.904941137Z,-0.974440,1.669956,10.294768,0.156727,0.179231,-0.436225
1980-01-06T23:15:15.924802283Z,-0.974440,1.939303,10.141540,0.147273,0.140615,-0.418116
1980-01-06T23:15:15.944675825Z,-1.266533,1.687912,10.208577,0.256595,0.161521,-0.422377
1980-01-06T23:15:15.964533898Z,-1.193510,1.242591,10.175058,0.317582,0.166447,-0.501207
1980-01-06T23:15:15.984414991Z,-0.950498,1.243788,10.452785,0.312655,0.052864,-0.609863
1980-01-06T23:15:16.004289210Z,-1.116895,1.948880,10.060136,-0.157792,-0.062584,-0.437291
1980-01-06T23:15:16.024161606Z,-1.788469,1.965640,7.665935,-0.841159,0.196674,-0.060187
1980-01-06T23:15:16.063905616Z,-1.412579,1.595735,10.170270,0.190150,0.025433,-0.482032
1980-01-06T23:15:16.083744314Z,-1.314417,1.851915,10.231321,-0.092944,-0.007324,-0.414920
1980-01-06T23:15:16.103467387Z,-1.643619,1.956063,10.249278,-0.308261,-0.026632,-0.341417
1980-01-06T23:15:16.123471293Z,-1.612495,1.672350,9.402928,-0.440486,0.000666,-0.380832
1980-01-06T23:15:16.143354366Z,-1.604115,1.697489,9.311948,-0.624244,0.020506,-0.270044
1980-01-06T23:15:16.163237387Z,-1.875857,1.634043,10.767623,-0.218912,0.084422,-0.455400
1980-01-06T23:15:16.183096085Z,-1.964442,1.667562,8.699033,-0.309859,0.078829,-0.287089
1980-01-06T23:15:16.222826346Z,-1.589750,1.741782,11.050138,0.350205,-0.113584,-0.296676
1980-01-06T23:15:16.242725981Z,-1.930924,1.398214,10.227731,-0.067245,-0.115581,-0.328634
1980-01-06T23:15:16.262719210Z,-1.535880,1.747767,10.064924,-0.097472,-0.096406,-0.351004
1980-01-06T23:15:16.282551554Z,-1.430536,2.141613,10.179847,-0.039681,-0.158458,-0.280697
1980-01-06T23:15:16.302317960Z,-1.707066,1.556231,9.691429,-0.148737,-0.109988,-0.225303
1980-01-06T23:15:16.322193064Z,-1.484405,1.726219,10.017040,-0.070707,-0.079229,-0.288154
1980-01-06T23:15:16.342061085Z,-1.578976,1.818396,10.210971,-0.033822,-0.136221,-0.264718
1980-01-06T23:15:16.361915616Z,-1.695095,1.692701,10.153510,-0.076300,-0.138351,-0.227434
1980-01-06T23:15:16.381790877Z,-1.616086,1.783680,10.254066,-0.105328,-0.143944,-0.233825
1980-01-06T23:15:16.401683168Z,-1.612495,1.899799,10.191817,-0.011984,-0.209058,-0.213585
1980-01-06T23:15:16.421525095Z,-1.650802,1.889025,10.038589,0.095874,-0.273906,-0.195476
1980-01-06T23:15:16.441391866Z,-1.618480,1.928530,9.995493,0.068576,-0.283493,-0.178432
1980-01-06T23:15:16.461261762Z,-1.444901,2.091335,9.803957,-0.017710,-0.257128,-0.140082
1980-01-06T23:15:16.481147543Z,-1.338359,2.348712,9.800365,-0.081226,-0.272441,-0.084688
1980-01-06T23:15:16.520882804Z,-1.435324,2.268506,9.593266,-0.239684,-0.190283,-0.009055
1980-01-06T23:15:16.540730773Z,-1.260547,2.270900,9.966763,-0.170975,-0.197340,-0.015446
1980-01-06T23:15:16.560589314Z,-1.227028,2.060210,10.153510,-0.172706,-0.212254,-0.003728
1980-01-06T23:15:16.580446918Z,-0.985214,2.153584,10.210971,-0.171507,-0.280164,0.020773
1980-01-06T23:15:16.600326450Z,-0.907402,2.132037,10.206182,-0.179231,-0.321976,0.078297
1980-01-06T23:15:16.620188012Z,-0.913388,1.991976,10.170270,-0.195609,-0.320777,0.131560
1980-01-06T23:15:16.640050043Z,-0.934936,1.844732,10.199000,-0.200003,-0.280697,0.148604
1980-01-06T23:15:16.659919418Z,-0.800860,2.003947,10.280403,-0.184424,-0.299605,0.157126
1980-01-06T23:15:16.679818481Z,-0.775721,2.054225,10.294768,-0.180828,-0.344080,0.175236
1980-01-06T23:15:16.699684575Z,-0.743400,2.029086,10.170270,-0.172440,-0.380299,0.195476
1980-01-06T23:15:16.719519210Z,-0.642843,1.929727,10.194212,-0.130362,-0.380832,0.211455
1980-01-06T23:15:16.739399002Z,-0.515950,1.721431,10.323499,-0.085887,-0.419048,0.228499
1980-01-06T23:15:16.759291502Z,-0.355539,1.669956,10.309134,-0.094276,-0.470580,0.237021
1980-01-06T23:15:16.779148637Z,-0.226252,1.671153,10.055347,-0.128497,-0.488556,0.261522
1980-01-06T23:15:16.799016241Z,-0.228646,1.539472,9.945214,-0.079495,-0.467651,0.260457
1980-01-06T23:15:16.818880877Z,-0.131681,1.389834,10.040982,-0.037417,-0.459262,0.249804
1980-01-06T23:15:16.838735616Z,0.031125,1.359907,10.017040,-0.013582,-0.491486,0.234891
1980-01-06T23:15:16.858649835Z,0.022745,1.254562,9.844658,-0.021305,-0.494282,0.240217
1980-01-06T23:15:16.878485043Z,0.114922,1.250970,9.766847,-0.072438,-0.471779,0.227434
1980-01-06T23:15:16.898363949Z,0.205901,1.244985,9.714174,-0.078164,-0.456865,0.230630
1980-01-06T23:15:16.918221241Z,0.289698,1.206678,9.647137,-0.042877,-0.446345,0.235956
1980-01-06T23:15:16.938093220Z,0.201113,1.175553,9.626786,-0.010519,-0.427570,0.234891
1980-01-06T23:15:16.977823689Z,0.404620,1.201889,9.823111,0.039415,-0.480301,0.233825
1980-01-06T23:15:16.997701710Z,0.527921,1.250970,9.621997,0.053263,-0.538491,0.248739
1980-01-06T23:15:17.017572231Z,0.562637,1.244985,9.234137,0.080561,-0.551540,0.253000
1980-01-06T23:15:17.037431658Z,0.602142,1.261744,8.913314,0.125168,-0.507998,0.242347
1980-01-06T23:15:17.057314783Z,0.769736,1.401805,8.822334,0.130362,-0.452604,0.253000
1980-01-06T23:15:17.077177699Z,0.905008,1.327585,8.889372,0.162719,-0.425972,0.261522
1980-01-06T23:15:17.097066241Z,0.920571,0.873884,8.898949,0.275770,-0.411858,0.224238
1980-01-06T23:15:17.116917804Z,1.187524,0.924162,8.945934,0.194011,-0.401471,0.279099
1980-01-06T23:15:17.136793064Z,1.079785,0.894234,9.281123,0.266183,-0.407064,0.206661
1980-01-06T23:15:17.156649262Z,1.331176,1.039083,9.242816,0.347675,-0.445413,0.203465
1980-01-06T23:15:17.176513481Z,1.181539,1.225831,9.142260,0.280297,-0.394547,0.234358
1980-01-06T23:15:17.196400356Z,1.370680,1.188721,8.668207,0.072305,-0.320644,0.278034
1980-01-06T23:15:17.216259783Z,1.511938,1.224634,8.559271,0.065647,-0.297342,0.257794
1980-01-06T23:15:17.236123064Z,1.519121,1.238999,8.516175,0.091213,-0.266849,0.275903
1980-01-06T23:15:17.256001606Z,1.558625,1.049857,8.458714,0.072172,-0.199337,0.253533
1980-01-06T23:15:17.275860303Z,1.674744,1.215057,8.550592,0.043409,-0.134490,0.234891
1980-01-06T23:15:17.295751710Z,1.697489,1.340753,8.751705,0.051399,-0.114915,0.261522
1980-01-06T23:15:17.315614678Z,1.612495,1.197101,8.924088,0.033955,-0.132625,0.284958
1980-01-06T23:15:17.335472439Z,1.742979,1.104924,8.550592,0.013582,-0.148072,0.278566
1980-01-06T23:15:17.355395199Z,1.763330,1.113304,8.622418,0.021039,-0.087485,0.255131
1980-01-06T23:15:17.375211449Z,1.708263,1.035492,8.655937,0.016378,-0.044342,0.257261
1980-01-06T23:15:17.395090928Z,1.820790,1.140837,8.794801,0.020373,0.004261,0.242347
1980-01-06T23:15:17.414796189Z,1.704672,1.273715,8.880992,0.063383,-0.011185,0.241282
1980-01-06T23:15:17.434816658Z,1.681927,1.303643,8.939650,0.093344,-0.040214,0.250870
1980-01-06T23:15:17.454714158Z,1.693898,1.285686,8.829516,0.056326,-0.042078,0.259392
1980-01-06T23:15:17.474550668Z,1.674744,1.320402,8.709806,0.062185,-0.023436,0.295611
1980-01-06T23:15:17.494446449Z,1.786075,1.095347,8.695441,0.088683,0.002131,0.287089
1980-01-06T23:15:17.514291501Z,1.853112,0.982820,8.786421,0.014914,0.040081,0.289219
1980-01-06T23:15:17.534171189Z,1.647211,0.952892,8.786421,-0.003995,0.057657,0.279632
1980-01-06T23:15:17.554031293Z,1.695095,0.849942,8.762479,0.008522,0.095341,0.272175
1980-01-06T23:15:17.573901710Z,1.854309,0.876278,8.863035,0.035819,0.138884,0.256196
1980-01-06T23:15:17.593748168Z,2.029086,0.822408,9.047688,0.062984,0.127166,0.258859
1980-01-06T23:15:17.613643168Z,1.917756,0.669179,8.985439,0.036618,0.066446,0.252467
1980-01-06T23:15:17.633521397Z,1.723825,0.526724,8.769960,0.013049,0.109855,0.219444
1980-01-06T23:15:17.653379730Z,1.808819,0.614113,8.841787,0.026765,0.185622,0.183225
1980-01-06T23:15:17.673252960Z,1.728614,0.647632,9.101258,0.009454,0.198006,0.174171
1980-01-06T23:15:17.693091345Z,1.877054,0.675165,9.106047,-0.034222,0.173771,0.177366
1980-01-06T23:15:17.732841397Z,1.668759,0.369904,9.225757,-0.055261,0.227301,0.162453
1980-01-06T23:15:17.752697907Z,1.649605,0.366313,9.316736,-0.014248,0.228765,0.125168
1980-01-06T23:15:17.772568428Z,1.733402,0.418985,9.302371,0.007057,0.206395,0.101733
1980-01-06T23:15:17.792444470Z,1.630451,0.483629,9.072528,0.013316,0.172173,0.085754
1980-01-06T23:15:17.812322595Z,1.444901,0.264559,8.646360,0.020639,0.200802,0.052731
1980-01-06T23:15:17.832175928Z,1.667562,0.620098,9.198224,0.234358,0.257394,0.005859
1980-01-06T23:15:17.852034991Z,1.613692,0.497994,9.509470,0.105195,0.291882,0.021838
1980-01-06T23:15:17.871900251Z,1.462857,0.373495,9.490316,-0.030360,0.278433,-0.006924
1980-01-06T23:15:17.891806657Z,1.499967,0.717063,9.468768,-0.000133,0.242347,-0.039947
1980-01-06T23:15:17.911525772Z,1.282095,0.677559,9.440038,0.024235,0.255796,-0.019707
1980-01-06T23:15:17.931516918Z,1.091756,0.567426,9.578901,0.101733,0.227700,-0.052731
1980-01-06T23:15:17.951381137Z,1.207875,0.784101,9.416096,0.058456,0.255930,-0.084688
1980-01-06T23:15:17.971258480Z,1.223437,0.870292,9.487922,0.054861,0.264452,-0.074036
1980-01-06T23:15:17.991135512Z,1.207875,0.741005,9.296386,-0.021572,0.249272,-0.041013
1980-01-06T23:15:18.030853012Z,0.939724,0.794875,9.435249,-0.085621,0.278833,-0.048469
1980-01-06T23:15:18.050757751Z,1.000776,0.726640,9.531017,-0.082025,0.317981,-0.096406
1980-01-06T23:15:18.070604366Z,0.833182,0.733823,9.588478,-0.034222,0.309193,-0.103863
1980-01-06T23:15:18.090475928Z,0.812831,0.746991,9.665093,0.021572,0.317981,-0.127299
1980-01-06T23:15:18.110459574Z,0.732626,0.730232,9.712977,0.062052,0.285890,-0.160322
1980-01-06T23:15:18.130206970Z,0.645237,0.918176,9.618406,0.108391,0.236888,-0.172040
1980-01-06T23:15:18.150081293Z,0.618901,0.949301,9.489120,0.134623,0.189484,-0.145408
1980-01-06T23:15:18.169941084Z,0.428562,0.749385,9.359832,0.083623,0.255796,-0.183758
1980-01-06T23:15:18.189826449Z,0.447716,0.938527,9.412505,0.043942,0.308793,-0.214651
1980-01-06T23:15:18.209677282Z,0.421380,0.957681,9.527427,0.035686,0.342349,-0.203998
1980-01-06T23:15:18.229553689Z,0.336385,0.851139,9.699809,0.084023,0.351404,-0.216781
1980-01-06T23:15:18.249416345Z,0.386664,0.979228,9.862615,0.103464,0.302002,-0.241282
1980-01-06T23:15:18.269296032Z,0.174777,1.161188,9.728539,0.078164,0.230230,-0.237021
1980-01-06T23:15:18.289172543Z,-0.181959,0.993594,8.833108,0.057125,0.237287,-0.235956
1980-01-06T23:15:18.309021293Z,0.165200,1.414973,9.680655,0.206661,0.258193,-0.246609
1980-01-06T23:15:18.328890043Z,-0.229843,1.206678,9.805154,0.062717,0.305198,-0.231695
1980-01-06T23:15:18.348637647Z,-0.178368,1.612495,9.929652,0.061119,0.295744,-0.248739
1980-01-06T23:15:18.368642647Z,-0.245406,1.626860,10.130765,0.051133,0.300804,-0.217846
1980-01-06T23:15:18.388514886Z,-0.197522,1.667562,10.121188,0.051798,0.221575,-0.200802
1980-01-06T23:15:18.408371501Z,-0.423774,1.510741,9.991901,0.100801,0.189351,-0.195476
1980-01-06T23:15:18.428238011Z,-0.302867,1.547851,10.011055,0.116380,0.185489,-0.179497
1980-01-06T23:15:18.448108272Z,-0.177171,1.406593,9.891345,0.106393,0.160722,-0.191215
1980-01-06T23:15:18.487860147Z,-0.300472,1.312023,9.651027,0.053796,0.173638,-0.167246
1980-01-06T23:15:18.507715720Z,-0.112527,1.301249,9.861717,0.047271,0.198006,-0.174703
1980-01-06T23:15:18.527580251Z,-0.330400,1.315614,9.603143,-0.045274,0.190150,-0.181095
1980-01-06T23:15:18.547441813Z,-0.350751,1.437718,9.449914,0.063117,0.184291,-0.207726
1980-01-06T23:15:18.567326970Z,-0.533907,1.315614,9.660604,0.174836,0.202800,-0.234358
1980-01-06T23:15:18.587194678Z,-0.423774,1.472434,9.631873,0.130095,0.143677,-0.230097
1980-01-06T23:15:18.607059834Z,-0.608127,1.699883,9.483433,0.078430,0.159523,-0.231162
1980-01-06T23:15:18.626940824Z,-0.707487,1.677138,9.497798,0.001997,0.206128,-0.171507
1980-01-06T23:15:18.646822386Z,-0.812831,1.394622,9.761160,0.039947,0.254199,-0.231162
1980-01-06T23:15:18.666667543Z,-0.638055,1.764527,9.938332,0.063649,0.193212,-0.218379
1980-01-06T23:15:18.686546188Z,-0.780510,1.613692,10.019734,0.067245,0.178698,-0.202400
1980-01-06T23:15:18.706416501Z,-0.864307,1.590947,9.971850,0.036752,0.142346,-0.180030
1980-01-06T23:15:18.726279522Z,-0.774524,1.578976,9.832987,0.084555,0.153931,-0.239684
1980-01-06T23:15:18.746092542Z,-0.736217,1.696292,10.149021,0.078297,0.134356,-0.192813
1980-01-06T23:15:18.766165876Z,-0.960075,1.504756,10.144233,0.066712,0.106260,-0.237554
1980-01-06T23:15:18.785897438Z,-0.969652,1.464054,10.158598,0.074036,0.120774,-0.298274
1980-01-06T23:15:18.805761813Z,-0.869095,1.338359,10.244789,0.103064,0.057391,-0.314253
1980-01-06T23:15:18.825612386Z,-0.758962,1.865083,10.503363,-0.141414,-0.106660,-0.148072
1980-01-06T23:15:18.845505355Z,-1.855506,1.019930,8.128315,-0.370845,0.050733,-0.040480
1980-01-06T23:15:18.865355772Z,-0.671574,2.336741,9.794679,0.126766,0.082957,-0.286556
1980-01-06T23:15:18.885245667Z,-1.381454,1.194707,9.694122,0.021705,0.129563,-0.191747
1980-01-06T23:15:18.905075459Z,-0.829591,1.489193,9.880871,0.121440,0.053529,-0.294013
1980-01-06T23:15:18.944833324Z,-0.918176,1.800440,9.775525,-0.137153,-0.054728,-0.189617
1980-01-06T23:15:18.964696136Z,-1.300052,1.618480,9.396942,-0.229298,-0.011718,-0.158192
1980-01-06T23:15:18.984581032Z,-1.048660,1.498770,9.234137,-0.355532,0.056193,-0.176301
1980-01-06T23:15:19.004439157Z,-0.993594,1.361104,9.042601,-0.475241,0.069242,-0.184823
1980-01-06T23:15:19.024281449Z,-0.811634,1.353921,9.271546,-0.314919,0.152599,-0.336623
1980-01-06T23:15:19.044223949Z,-1.490391,1.165976,8.859743,0.098271,0.294679,-0.327036
1980-01-06T23:15:19.064010511Z,-0.781707,1.410185,10.234015,0.557799,0.184157,-0.387756
1980-01-06T23:15:19.083939105Z,-1.267730,0.970849,10.195708,0.158458,0.098271,-0.287621
1980-01-06T23:15:19.103765147Z,-1.312023,1.332373,9.894038,-0.038349,0.129563,-0.369646
1980-01-06T23:15:19.123631865Z,-1.362301,1.648408,9.855731,-0.033289,0.144610,-0.350472
1980-01-06T23:15:19.143517074Z,-1.365892,1.473631,9.946711,-0.061519,0.114516,-0.283360
1980-01-06T23:15:19.163387334Z,-1.559822,1.315614,10.064924,-0.148471,0.157260,-0.299872
1980-01-06T23:15:19.183245199Z,-1.557428,1.437718,10.361806,-0.026232,0.182560,-0.325438
1980-01-06T23:15:19.203093115Z,-1.461660,1.381454,10.835857,0.161521,0.061119,-0.324373
1980-01-06T23:15:19.242878688Z,-1.595735,1.294066,10.069713,-0.039148,-0.043543,-0.281762
1980-01-06T23:15:19.262713115Z,-1.496376,1.397017,9.763255,-0.022237,-0.022371,-0.311590
1980-01-06T23:15:19.282586188Z,-1.507150,1.466449,9.542989,-0.013449,-0.017710,-0.278566
1980-01-06T23:15:19.302446657Z,-1.571793,1.294066,9.581296,0.071240,0.013848,-0.305198
1980-01-06T23:15:19.322207959Z,-1.400608,1.416170,9.672276,0.030626,-0.018775,-0.302002
1980-01-06T23:15:19.342042646Z,-1.567005,1.540669,9.638757,-0.021971,-0.005326,-0.308394
1980-01-06T23:15:19.381828532Z,-1.622072,1.759738,9.762058,-0.030360,-0.004661,-0.254065
1980-01-06T23:15:19.401724365Z,-1.613692,1.777695,9.819519,-0.017843,-0.047937,-0.240217
1980-01-06T23:15:19.421518428Z,-1.594538,1.799243,9.819519,-0.008788,-0.057391,-0.231695
1980-01-06T23:15:19.441378896Z,-1.471237,1.953669,9.795577,-0.047671,-0.054328,-0.201867
1980-01-06T23:15:19.461280094Z,-1.602918,1.934515,9.662699,-0.131693,-0.041146,-0.159257
1980-01-06T23:15:19.481167073Z,-1.619677,2.030283,9.830293,-0.150602,-0.010786,-0.151800
1980-01-06T23:15:19.540734261Z,-1.641225,1.946486,10.606014,-0.192413,-0.038216,-0.027164
1980-01-06T23:15:19.560640146Z,-1.520318,1.997961,10.685322,-0.206794,-0.106260,-0.006392
1980-01-06T23:15:19.580504417Z,-1.540669,1.827973,10.651803,-0.227567,-0.127432,0.025566
1980-01-06T23:15:19.600340928Z,-1.571793,1.798046,10.560823,-0.190150,-0.188951,0.034088
1980-01-06T23:15:19.620195198Z,-1.398214,1.946486,10.484209,-0.127432,-0.236355,0.054328
1980-01-06T23:15:19.640089313Z,-1.426944,1.771709,10.455479,-0.081093,-0.294013,0.075634
1980-01-06T23:15:19.679840511Z,-1.364695,1.690306,10.340557,-0.170975,-0.347010,0.113983
1980-01-06T23:15:19.699708375Z,-1.216254,1.653196,10.376171,-0.162320,-0.355532,0.139017
1980-01-06T23:15:19.719572334Z,-1.243788,1.601721,10.328287,-0.179896,-0.374706,0.162453
1980-01-06T23:15:19.739507282Z,-1.109712,1.471237,10.251673,-0.191082,-0.397476,0.179497
1980-01-06T23:15:19.759301865Z,-0.966060,1.268927,10.218154,-0.131560,-0.414654,0.185888
1980-01-06T23:15:19.779185146Z,-0.705092,1.097741,10.313922,-0.117712,-0.429701,0.182693
1980-01-06T23:15:19.799046969Z,-0.671574,0.993594,10.366594,-0.091879,-0.453536,0.168844
1980-01-06T23:15:19.838785042Z,-0.464475,0.933739,10.061633,-0.055793,-0.453802,0.152333
1980-01-06T23:15:19.858776865Z,-0.371101,0.937330,10.115502,-0.053929,-0.469781,0.139550
1980-01-06T23:15:19.878530511Z,-0.333991,0.986411,9.986216,-0.068843,-0.494415,0.141680
1980-01-06T23:15:19.898382386Z,-0.359130,1.132457,9.885659,-0.111320,-0.471645,0.156594
1980-01-06T23:15:19.918252282Z,-0.325611,1.260547,9.813833,-0.192147,-0.433296,0.169377
1980-01-06T23:15:19.938131448Z,-0.331597,1.417367,9.732430,-0.223972,-0.414920,0.196008
1980-01-06T23:15:19.997730459Z,-0.084994,0.532710,9.638757,0.040879,-0.457398,0.137952
1980-01-06T23:15:20.017601917Z,0.494403,1.480814,9.969156,-0.001198,-0.521047,0.219977
1980-01-06T23:15:20.037463896Z,-0.414197,-0.401029,9.475951,0.303467,-0.545149,0.012251
1980-01-06T23:15:20.057321761Z,0.608127,0.738611,10.222942,0.599743,-0.614258,0.017577
1980-01-06T23:15:20.077225302Z,0.092177,0.275333,9.387665,0.145675,-0.550741,0.161920
1980-01-06T23:15:20.097072959Z,-0.114922,1.568202,8.616732,0.083357,-0.454335,0.240750
1980-01-06T23:15:20.136766813Z,0.368707,1.229423,8.674192,-0.311057,-0.364986,0.170442
1980-01-06T23:15:20.156498896Z,0.532710,1.375469,8.157045,-0.189883,-0.239817,0.158724
1980-01-06T23:15:20.176581032Z,0.824802,1.713051,8.999804,0.228100,-0.200003,0.162985
1980-01-06T23:15:20.196419104Z,0.700304,1.177947,9.521740,0.278433,-0.293480,0.231162
1980-01-06T23:15:20.216250250Z,0.725443,0.943315,9.393352,0.076965,-0.328367,0.206128
1980-01-06T23:15:20.236174834Z,0.899023,1.285686,9.144354,0.011984,-0.333161,0.213585
1980-01-06T23:15:20.256016761Z,0.855927,1.222240,9.044994,0.119709,-0.323441,0.248739
1980-01-06T23:15:20.295733219Z,1.131260,1.036689,9.241320,0.358861,-0.259392,0.238086
1980-01-06T23:15:20.315620979Z,1.210269,1.113304,9.404125,0.341816,-0.303334,0.257261
1980-01-06T23:15:20.335473896Z,1.255759,0.969652,9.174282,0.259259,-0.336890,0.247674
1980-01-06T23:15:20.355352073Z,1.395820,1.120486,8.920496,0.230230,-0.270710,0.216781
1980-01-06T23:15:20.375242334Z,1.462857,1.322796,9.018958,0.233825,-0.227167,0.243945
1980-01-06T23:15:20.395071292Z,1.426944,1.309628,8.990228,0.232094,-0.185755,0.258859
1980-01-06T23:15:20.434801240Z,1.345541,1.517924,8.985439,0.244744,-0.194943,0.270577
1980-01-06T23:15:20.454707750Z,1.321599,1.562217,8.832211,0.281363,-0.219178,0.273773
1980-01-06T23:15:20.474655406Z,1.316811,1.593341,8.535329,0.343148,-0.245144,0.264185
1980-01-06T23:15:20.494408740Z,1.476025,1.697489,8.664616,0.498943,-0.213718,0.238619
1980-01-06T23:15:20.514306969Z,1.642422,1.683124,8.805574,0.490421,-0.205596,0.272175
1980-01-06T23:15:20.534146083Z,1.484405,1.519121,9.576508,0.334360,-0.167113,0.295611
1980-01-06T23:15:20.554049990Z,1.742979,1.629254,8.982745,0.332096,-0.152200,0.262587
1980-01-06T23:15:20.593769261Z,1.760935,1.459266,8.513482,0.280031,-0.105994,0.276436
1980-01-06T23:15:20.613659833Z,1.798046,1.353921,8.489540,0.369913,-0.037551,0.249804
1980-01-06T23:15:20.633525406Z,1.921347,1.404199,8.470387,0.403469,-0.018908,0.222107
1980-01-06T23:15:20.653359469Z,2.080561,1.505953,8.588001,0.365652,0.026898,0.224771
1980-01-06T23:15:20.673265511Z,2.165555,1.504756,8.650250,0.308926,0.032624,0.230097
1980-01-06T23:15:20.693154000Z,2.201468,1.598130,8.559271,0.285757,0.001864,0.254598
1980-01-06T23:15:20.752712750Z,2.135628,1.731008,8.781632,0.187087,0.128497,0.257261
1980-01-06T23:15:20.772619365Z,2.045845,1.437718,8.781632,0.184024,0.076033,0.280697
1980-01-06T23:15:20.792469990Z,2.063802,1.474828,8.666711,0.203465,0.054462,0.255131
1980-01-06T23:15:20.812325302Z,2.061408,1.559822,8.685864,0.171907,0.098137,0.245543
1980-01-06T23:15:20.832225146Z,2.024297,1.446098,8.810363,0.129163,0.144610,0.234891
1980-01-06T23:15:20.852062177Z,1.945289,1.364695,8.690653,0.116247,0.135688,0.203998
1980-01-06T23:15:20.891796448Z,1.978808,1.389834,8.724172,0.121840,0.244478,0.127299
1980-01-06T23:15:20.911680823Z,1.948880,1.414973,8.800786,0.097472,0.194677,0.105994
1980-01-06T23:15:20.931541135Z,1.857901,1.520318,8.590096,0.087218,0.208126,0.078297
1980-01-06T23:15:20.951557854Z,1.900996,1.677138,8.611644,0.085354,0.277102,0.060187
1980-01-06T23:15:20.971417750Z,1.608904,1.534683,8.713398,0.056326,0.271909,0.054861
1980-01-06T23:15:20.991264312Z,1.746570,1.656788,8.554183,0.054328,0.266050,0.004794
1980-01-06T23:15:21.011309885Z,1.648408,1.776498,8.732552,0.080694,0.341550,-0.000533
1980-01-06T23:15:21.031071708Z,1.583764,1.714248,8.852262,0.136886,0.360991,-0.026099
1980-01-06T23:15:21.070796240Z,1.347936,1.838747,8.934861,0.127965,0.395080,-0.066579
1980-01-06T23:15:21.090667177Z,1.380257,1.845930,9.188647,0.101333,0.414521,-0.096406
1980-01-06T23:15:21.110509208Z,1.339556,2.000355,9.226954,0.047271,0.393615,-0.134756
1980-01-06T23:15:21.130391708Z,1.181539,2.149993,9.341876,0.051932,0.405999,-0.124103
1980-01-06T23:15:21.150251864Z,0.960075,2.001553,9.526528,0.110521,0.387756,-0.119310
1980-01-06T23:15:21.170107958Z,0.974440,2.062605,9.627085,0.076566,0.368448,-0.157659
1980-01-06T23:15:21.209867646Z,0.721852,2.117671,9.641450,0.112785,0.380832,-0.147006
1980-01-06T23:15:21.229730458Z,0.689530,2.090138,9.536105,0.148604,0.343547,-0.199204
1980-01-06T23:15:21.249613583Z,0.687136,2.479196,9.887753,0.153664,0.291350,-0.150735
1980-01-06T23:15:21.269484625Z,0.423774,2.268506,9.677064,0.125168,0.263786,-0.150735
1980-01-06T23:15:21.289349052Z,0.486023,2.336741,9.586084,0.054994,0.239152,-0.168844
1980-01-06T23:15:21.309204208Z,0.556652,2.474407,9.696218,0.018243,0.238752,-0.174171
1980-01-06T23:15:21.329086031Z,0.466869,2.407370,9.590873,-0.008389,0.221308,-0.149670
1980-01-06T23:15:21.348944625Z,0.282516,2.385822,9.509470,0.000000,0.222107,-0.157126
1980-01-06T23:15:21.368830979Z,0.189142,2.335544,9.534908,0.014381,0.263120,-0.174703
1980-01-06T23:15:21.388649885Z,0.361524,2.517503,9.535806,0.046073,0.204797,-0.211455
1980-01-06T23:15:21.408554208Z,0.458490,2.540248,9.286809,-0.005726,0.126633,-0.143278
1980-01-06T23:15:21.428448271Z,0.075417,2.367866,9.200618,-0.095341,0.159790,-0.142213
1980-01-06T23:15:21.448289573Z,0.050278,2.454057,9.171887,-0.233692,0.220776,-0.123038
1980-01-06T23:15:21.468169469Z,-0.002394,2.066196,9.095273,-0.345545,0.312522,-0.120907
1980-01-06T23:15:21.488031604Z,0.086191,2.152387,9.402030,-0.298274,0.354333,-0.191747
1980-01-06T23:15:21.507874573Z,0.051475,2.373851,9.368511,-0.199471,0.254199,-0.161920
1980-01-06T23:15:21.527736239Z,-0.237026,1.877054,9.200917,-0.088950,0.272308,-0.204531
1980-01-06T23:15:21.547607489Z,-0.147243,2.103306,9.153033,0.017843,0.283094,-0.190682
1980-01-06T23:15:21.567494625Z,-0.353145,2.280477,9.375395,0.053663,0.264585,-0.180562
1980-01-06T23:15:21.587356968Z,-0.439336,2.297236,9.404125,0.046605,0.284692,-0.176301
1980-01-06T23:15:21.607210718Z,-0.402226,2.164358,9.667487,0.022371,0.302135,-0.179497
1980-01-06T23:15:21.627076083Z,-0.450110,2.177526,9.705794,-0.028895,0.248606,-0.197606
1980-01-06T23:15:21.666833062Z,-0.509965,2.121263,9.605238,0.090681,0.176035,-0.206128
1980-01-06T23:15:21.686695406Z,-0.580594,2.175132,9.516952,0.051932,0.144876,-0.221575
1980-01-06T23:15:21.706569156Z,-0.778116,2.207454,9.301474,0.063250,0.124636,-0.199204
1980-01-06T23:15:21.726418583Z,-0.719458,2.176329,9.449914,0.050334,0.189217,-0.217314
1980-01-06T23:15:21.746290146Z,-0.736217,2.574964,9.363423,-0.055793,0.225570,-0.218912
1980-01-06T23:15:21.766176552Z,-0.840365,2.474407,9.349058,0.135155,0.245144,-0.270044
1980-01-06T23:15:21.786048375Z,-0.730232,2.400187,9.569324,0.178032,0.247541,-0.253000
1980-01-06T23:15:21.805900770Z,-0.854730,2.178724,9.655517,0.071240,0.266582,-0.279632
1980-01-06T23:15:21.825793323Z,-0.982820,2.398990,9.531017,-0.036618,0.276569,-0.278566
1980-01-06T23:15:21.845643531Z,-1.131260,2.543839,9.677064,-0.019175,0.290684,-0.281762
1980-01-06T23:15:21.865519781Z,-1.233014,2.488773,9.768044,0.054195,0.273506,-0.278566
1980-01-06T23:15:21.885378010Z,-0.981623,2.564190,9.763255,0.096673,0.207327,-0.265783
1980-01-06T23:15:21.905256812Z,-0.926556,3.247735,9.959579,-0.089615,0.168844,-0.165648
1980-01-06T23:15:21.925113166Z,-1.484405,2.475605,9.528624,-0.000533,0.182027,-0.170975
1980-01-06T23:15:21.945000718Z,-1.282095,2.340332,9.514258,-0.101999,0.249139,-0.184823
1980-01-06T23:15:21.964865770Z,-1.161188,2.589329,10.048465,-0.017444,0.240217,-0.247141
1980-01-06T23:15:21.984730979Z,-1.265336,2.497152,10.105926,0.052997,0.175103,-0.207726
1980-01-06T23:15:22.004587489Z,-1.284489,2.302025,10.216059,0.064582,0.161254,-0.224771
1980-01-06T23:15:22.024465770Z,-1.327585,2.348712,10.192117,-0.038483,0.109855,-0.253533
1980-01-06T23:15:22.044330302Z,-1.442507,2.753332,9.828198,-0.074968,0.050866,-0.227966
1980-01-06T23:15:22.064209520Z,-1.629254,2.631228,9.809045,0.023036,0.085354,-0.225836
1980-01-06T23:15:22.084064677Z,-1.648408,2.431312,9.839869,-0.005326,0.092545,-0.201867
1980-01-06T23:15:22.103941656Z,-1.625663,2.463634,9.710583,-0.007989,0.075634,-0.231695
1980-01-06T23:15:22.123815614Z,-1.407791,2.533065,9.633968,0.027963,0.086020,-0.224238
1980-01-06T23:15:22.143671552Z,-1.449689,2.263718,9.772832,0.073104,0.072438,-0.246609
1980-01-06T23:15:22.163553270Z,-1.505953,2.346318,9.787197,0.000932,0.028496,-0.229564
1980-01-06T23:15:22.183412333Z,-1.660379,2.075773,9.624392,0.014781,0.040081,-0.259392
1980-01-06T23:15:22.203297906Z,-1.456872,2.390610,9.635465,0.008788,0.012384,-0.251402
1980-01-06T23:15:22.223165354Z,-1.563414,2.384625,9.621099,0.024235,0.006658,-0.258859
1980-01-06T23:15:22.243048427Z,-1.628057,2.037466,9.660604,0.038349,0.031026,-0.255663
1980-01-06T23:15:22.262875718Z,-1.509544,1.893813,9.904813,0.112518,-0.018243,-0.317449
1980-01-06T23:15:22.282775979Z,-1.468843,1.600524,10.019734,0.061652,-0.129829,-0.365385
1980-01-06T23:15:22.302635302Z,-1.242591,1.948880,10.129868,-0.255131,-0.241815,-0.192813
1980-01-06T23:15:22.322511552Z,-1.788469,1.541866,9.780313,-0.286822,-0.050866,-0.381364
1980-01-06T23:15:22.342381395Z,-1.319205,2.167950,9.485528,-0.431831,-0.149536,-0.228499
1980-01-06T23:15:22.362241552Z,-2.288857,0.448913,7.522283,-0.691356,0.091746,-0.360592
1980-01-06T23:15:22.382116552Z,-1.052252,2.911349,10.098443,-0.263919,-0.084422,-0.370179
1980-01-06T23:15:22.441561395Z,-1.714248,2.276886,10.431537,0.000266,-0.081493,-0.389886
1980-01-06T23:15:22.461460458Z,-1.843535,2.294842,9.967062,-0.105062,-0.095341,-0.397343
1980-01-06T23:15:22.481491499Z,-1.783680,2.667141,9.775525,-0.109589,-0.077897,-0.365385
1980-01-06T23:15:22.501197333Z,-1.868674,2.597709,9.665392,-0.030759,-0.068976,-0.319579
1980-01-06T23:15:22.521054260Z,-1.821988,2.455254,9.909601,0.064848,-0.082158,-0.328101
1980-01-06T23:15:22.560801604Z,-1.787272,2.364274,9.862615,-0.081626,-0.170708,-0.276436
1980-01-06T23:15:22.580799885Z,-1.759738,2.439692,9.641151,-0.082691,-0.172040,-0.250870
1980-01-06T23:15:22.600540301Z,-1.726219,2.255338,9.602843,-0.027830,-0.133424,-0.241282
1980-01-06T23:15:22.620427854Z,-1.535880,2.166753,9.727343,0.011718,-0.117978,-0.232760
1980-01-06T23:15:22.640243895Z,-1.532289,2.009932,9.938032,-0.030759,-0.123171,-0.230630
1980-01-06T23:15:22.660148739Z,-1.519121,2.020706,9.923667,-0.071373,-0.155528,-0.235956
1980-01-06T23:15:22.680020458Z,-1.567005,2.093729,9.823111,-0.045673,-0.146341,-0.244478
1980-01-06T23:15:22.719713374Z,-1.466449,2.081758,9.945214,-0.165915,-0.132492,-0.165648
1980-01-06T23:15:22.739618374Z,-1.526304,1.995567,9.906907,-0.111586,-0.145275,-0.182693
1980-01-06T23:15:22.759464937Z,-1.522712,2.060210,9.952697,-0.092278,-0.167113,-0.173638
1980-01-06T23:15:22.779348426Z,-1.547851,2.138022,9.928755,-0.017444,-0.183625,-0.187486
1980-01-06T23:15:22.799234572Z,-1.417367,2.261323,9.919178,0.004794,-0.183225,-0.174703
1980-01-06T23:15:22.819073062Z,-1.434127,2.385822,10.019734,-0.001997,-0.229298,-0.149137
1980-01-06T23:15:22.878687958Z,-1.438915,2.701857,9.919178,-0.057791,-0.248340,-0.030893
1980-01-06T23:15:22.898554364Z,-1.271321,2.825158,9.866506,-0.178964,-0.221841,0.038349
1980-01-06T23:15:22.918421916Z,-1.304840,2.589329,9.832987,-0.255397,-0.157925,0.087352
1980-01-06T23:15:22.938280249Z,-1.108515,2.597709,10.125079,-0.197473,-0.191747,0.069242
1980-01-06T23:15:22.958312489Z,-1.125275,2.479196,10.168175,-0.171374,-0.245277,0.108657
1980-01-06T23:15:22.978042385Z,-1.203086,2.279280,10.119991,-0.082558,-0.255530,0.085754
1980-01-06T23:15:23.037628114Z,-0.940921,2.353500,9.894937,-0.025034,-0.352070,0.172040
1980-01-06T23:15:23.057489416Z,-0.820014,2.257732,9.894937,-0.086153,-0.346344,0.200802
1980-01-06T23:15:23.077388322Z,-0.809240,2.133234,9.875783,-0.109056,-0.343281,0.224238
1980-01-06T23:15:23.097251603Z,-0.739808,2.035071,9.765650,-0.079362,-0.360725,0.228499
1980-01-06T23:15:23.117145770Z,-0.617704,1.976413,9.684247,-0.024634,-0.374706,0.233825
1980-01-06T23:15:23.176724051Z,-0.446519,1.844732,9.717766,0.069109,-0.355931,0.226369
1980-01-06T23:15:23.196583582Z,-0.433351,1.936909,9.626786,0.074169,-0.339553,0.230630
1980-01-06T23:15:23.216444520Z,-0.397437,1.860295,9.655517,0.098404,-0.345145,0.232760
1980-01-06T23:15:23.236339832Z,-0.369904,1.848324,9.445126,0.107991,-0.400672,0.223705
1980-01-06T23:15:23.256195145Z,-0.257377,1.750161,9.416395,0.121840,-0.377636,0.225836
1980-01-06T23:15:23.276068010Z,-0.203507,1.819593,9.344569,0.177100,-0.344879,0.202400
1980-01-06T23:15:23.315836812Z,-0.084994,1.443704,9.536105,0.299472,-0.390552,0.160855
1980-01-06T23:15:23.335672541Z,0.160412,1.899799,9.354146,0.283760,-0.408262,0.220510
1980-01-06T23:15:23.355558062Z,-0.070629,1.634043,9.598354,0.464189,-0.374706,0.107592
1980-01-06T23:15:23.375408166Z,0.357933,2.070984,9.651027,0.606002,-0.409194,0.084156
1980-01-06T23:15:23.395293687Z,0.411803,2.260126,9.052477,0.488024,-0.434095,0.202400
1980-01-06T23:15:23.415148009Z,0.178368,2.123657,8.841787,0.408529,-0.349406,0.210922
1980-01-06T23:15:23.435019780Z,0.311246,2.257732,8.966286,0.167779,-0.284559,0.240750
1980-01-06T23:15:23.474771187Z,0.490811,2.403779,8.664616,-0.038882,-0.151001,0.225836
1980-01-06T23:15:23.494641239Z,0.647632,2.395399,8.913613,-0.034887,-0.136886,0.262055
1980-01-06T23:15:23.514515562Z,0.758962,2.433706,9.124303,0.112918,-0.225570,0.276969
1980-01-06T23:15:23.534359416Z,0.701501,2.297236,9.018958,0.263520,-0.337689,0.306796
1980-01-06T23:15:23.554221134Z,0.760159,2.130840,8.559271,0.269778,-0.302269,0.290817
1980-01-06T23:15:23.574120301Z,0.970849,2.167950,8.841787,0.237554,-0.223572,0.264185
1980-01-06T23:15:23.613837541Z,1.057040,2.290054,8.784326,0.150069,-0.165116,0.279099
1980-01-06T23:15:23.633701343Z,1.165976,2.136825,8.808268,0.161920,-0.141147,0.274838
1980-01-06T23:15:23.653566759Z,1.169568,2.163161,8.856153,0.156727,-0.104396,0.262055
1980-01-06T23:15:23.673451864Z,1.225831,2.141613,8.961497,0.184157,-0.080827,0.238619
1980-01-06T23:15:23.693313739Z,1.252167,2.214637,8.975863,0.187353,-0.083357,0.224771
1980-01-06T23:15:23.713191030Z,1.229423,2.323573,8.908825,0.186022,-0.064582,0.217314
1980-01-06T23:15:23.733040666Z,1.271321,2.415750,8.808268,0.186687,-0.056193,0.222640
1980-01-06T23:15:23.772827280Z,1.222240,2.515109,8.735245,0.133291,-0.028895,0.218379
1980-01-06T23:15:23.792636238Z,1.344344,2.716222,8.701726,0.131027,-0.023036,0.214118
1980-01-06T23:15:23.812511395Z,1.349133,2.760514,8.768764,0.084289,-0.024767,0.246076
1980-01-06T23:15:23.832409311Z,1.177947,2.598906,8.923190,0.027031,0.006924,0.263120
1980-01-06T23:15:23.852247541Z,1.259350,2.561796,9.143456,0.027963,0.051932,0.258859
1980-01-06T23:15:23.872147645Z,1.300052,2.536657,9.248801,0.068443,0.005726,0.265251
1980-01-06T23:15:23.892018738Z,1.417367,2.636016,9.038112,0.110122,-0.055660,0.269512
1980-01-06T23:15:23.931747697Z,1.375469,2.312799,8.867824,0.134356,0.010120,0.257261
1980-01-06T23:15:23.951567645Z,1.432930,2.503138,8.719383,0.142080,-0.001198,0.246609
1980-01-06T23:15:23.971461863Z,1.464054,2.458845,8.489540,0.183492,0.025300,0.257261
1980-01-06T23:15:23.991320197Z,1.563414,2.336741,8.374619,0.217846,0.040879,0.231695
1980-01-06T23:15:24.011182176Z,1.588553,2.424129,8.159141,0.206927,0.053796,0.213585
1980-01-06T23:15:24.031057697Z,1.611298,2.425326,8.056489,0.201734,0.132359,0.202400
1980-01-06T23:15:24.070938999Z,1.564611,2.455254,8.291121,0.109589,0.242747,0.173638
1980-01-06T23:15:24.090671707Z,1.661576,2.570175,8.401254,0.074702,0.273506,0.161920
1980-01-06T23:15:24.110520978Z,1.678335,2.670732,8.324639,0.111986,0.234092,0.185356
1980-01-06T23:15:24.130393165Z,1.339556,2.431312,8.257602,0.205063,0.181627,0.154463
1980-01-06T23:15:24.150276238Z,1.228225,2.542642,8.372523,0.101067,0.258193,0.085221
1980-01-06T23:15:24.170156655Z,1.031901,2.807201,8.832211,-0.038616,0.419048,0.098004
1980-01-06T23:15:24.190007540Z,1.053449,2.553416,9.388563,-0.091480,0.424108,0.142213
1980-01-06T23:15:24.229730301Z,1.125275,2.233790,9.466374,-0.032091,0.243945,0.134756
1980-01-06T23:15:24.248799207Z,1.187524,2.104503,9.116820,0.032757,0.202400,0.111320
1980-01-06T23:15:24.269498842Z,0.998382,2.027889,8.939650,0.039148,0.237953,0.068710
1980-01-06T23:15:24.289360978Z,0.942118,2.087744,9.040206,0.016112,0.308926,0.028229
1980-01-06T23:15:24.309259572Z,1.127669,2.166753,9.428067,-0.053396,0.351137,0.007989
1980-01-06T23:15:24.329084572Z,0.990002,2.211045,9.509470,-0.091346,0.277767,0.012251
1980-01-06T23:15:24.388686134Z,0.705092,2.221819,9.464279,-0.075101,0.231295,-0.035154
1980-01-06T23:15:24.408561447Z,0.561440,2.115277,9.205706,-0.007324,0.199471,-0.058589
1980-01-06T23:15:24.428440509Z,0.599748,2.184709,9.148245,0.093344,0.202400,-0.083091
1980-01-06T23:15:24.448316915Z,0.760159,2.293645,8.894460,0.148072,0.190549,-0.093743
1980-01-06T23:15:24.468180717Z,0.687136,2.260126,8.705018,0.218912,0.108524,-0.115581
1980-01-06T23:15:24.488054051Z,0.326809,2.346318,8.503905,0.191881,0.118511,-0.151800
1980-01-06T23:15:24.527773322Z,0.398635,2.644396,9.119215,-0.043409,0.311989,-0.153931
1980-01-06T23:15:24.547627853Z,0.245406,2.396596,9.472659,-0.076433,0.356064,-0.154463
1980-01-06T23:15:24.567560561Z,0.225055,2.315193,9.922769,-0.069109,0.379234,-0.176834
1980-01-06T23:15:24.587387124Z,0.262165,2.378639,10.143036,0.060720,0.257661,-0.206661
1980-01-06T23:15:24.607313686Z,0.232238,2.625242,10.075998,0.029028,0.134623,-0.183225
1980-01-06T23:15:24.627112280Z,0.035913,2.659958,9.803059,-0.003595,0.073237,-0.175768
1980-01-06T23:15:24.647028061Z,-0.061052,2.663549,9.218874,-0.074036,0.068177,-0.167246
1980-01-06T23:15:24.686725613Z,-0.316035,2.626439,9.008183,-0.021172,0.269379,-0.193878
1980-01-06T23:15:24.706609311Z,-0.154426,2.547431,9.453506,-0.000666,0.302269,-0.238619
1980-01-06T23:15:24.726468894Z,-0.178368,2.741361,9.731233,-0.004927,0.265117,-0.241815
1980-01-06T23:15:24.746333374Z,-0.055067,2.674323,9.705794,0.013049,0.219844,-0.234891
1980-01-06T23:15:24.766283790Z,-0.223858,2.481590,9.973945,0.084156,0.186022,-0.210390
1980-01-06T23:15:24.786102592Z,-0.268151,2.381034,9.844658,0.072837,0.146873,-0.256196
1980-01-06T23:15:24.825821238Z,-0.353145,2.716222,9.303569,0.257661,0.164983,-0.240217
1980-01-06T23:15:24.845678478Z,-0.602142,2.620454,9.346664,0.268846,0.108257,-0.270044
1980-01-06T23:15:24.865565978Z,-0.684742,2.815581,9.092878,0.098137,0.050067,-0.254065
1980-01-06T23:15:24.885465717Z,-0.555455,3.034651,8.690653,0.021039,0.105062,-0.231695
1980-01-06T23:15:24.905302123Z,-0.548272,2.806004,8.915708,0.036219,0.199337,-0.217846
1980-01-06T23:15:24.925188790Z,-0.605733,2.476802,9.279627,-0.038349,0.241282,-0.241282
1980-01-06T23:15:24.945035301Z,-0.719458,2.552219,9.389760,-0.083091,0.243945,-0.319046
1980-01-06T23:15:24.984765301Z,-0.938527,3.125630,9.086893,0.129962,0.215183,-0.324373
1980-01-06T23:15:25.004661498Z,-1.149217,3.110068,9.005490,0.183092,0.168045,-0.302002
1980-01-06T23:15:25.024497905Z,-1.073799,3.265691,8.818743,0.075767,0.143677,-0.289219
1980-01-06T23:15:25.044439780Z,-1.320402,3.162740,8.904934,0.044475,0.277501,-0.264718
1980-01-06T23:15:25.064209728Z,-1.053449,3.160346,9.240122,0.117179,0.236489,-0.278566
1980-01-06T23:15:25.084129311Z,-1.163582,3.202245,9.211391,0.043676,0.148205,-0.260457
1980-01-06T23:15:25.143704155Z,-1.125275,3.390190,9.986216,-0.127965,0.077498,-0.188552
1980-01-06T23:15:25.163584103Z,-1.563414,3.062184,9.483433,-0.142479,0.079495,-0.209857
1980-01-06T23:15:25.183439363Z,-1.280898,3.145981,9.574412,-0.093211,0.137952,-0.187486
1980-01-06T23:15:25.203321707Z,-1.343147,2.961627,9.674969,-0.197606,0.123571,-0.135288
1980-01-06T23:15:25.223168738Z,-1.392228,2.865860,9.641450,-0.333161,0.066313,-0.115048
1980-01-06T23:15:25.243055040Z,-1.289278,2.736573,9.914390,-0.398009,0.019441,-0.095874
1980-01-06T23:15:25.282793425Z,-1.386243,1.947683,10.014946,-0.176301,-0.073370,-0.157659
1980-01-06T23:15:25.302649988Z,-1.223437,2.203863,9.852140,-0.201068,-0.064182,-0.225836
1980-01-06T23:15:25.322573894Z,-1.304840,2.201468,9.760861,-0.219577,0.012916,-0.222107
1980-01-06T23:15:25.342366655Z,-1.292869,2.207454,9.885360,-0.123837,-0.027031,-0.270044
1980-01-06T23:15:25.362268790Z,-1.156399,2.063802,9.689035,-0.071506,-0.089615,-0.313720
1980-01-06T23:15:25.382138946Z,-0.970849,1.985990,9.861418,-0.002397,-0.094409,-0.363788
1980-01-06T23:15:25.441721759Z,-1.013944,2.749741,9.258378,-0.750212,-0.156860,-0.167246
1980-01-06T23:15:25.461614988Z,-1.974019,1.015141,8.549694,-0.585229,0.053929,-0.405865
1980-01-06T23:15:25.481450248Z,-1.426944,2.528277,9.306262,-0.386957,0.015979,-0.279099
1980-01-06T23:15:25.501328790Z,-1.703475,2.123657,10.129868,0.155395,0.060986,-0.427171
